Time (s),Linear Acceleration x (m/s^2),Linear Acceleration y (m/s^2),Linear Acceleration z (m/s^2),Absolute acceleration (m/s^2),label
130.4225197,1.140005616,13.13378776,-0.1497879041,13.18402177,1
130.4325487,-1.681702783,20.38234594,0.06040173769,20.45169428,1
130.4425787,1.214839159,19.79508903,0.1659088238,19.83302573,1
130.4526077,4.492547933,11.44305249,-1.186255045,12.35045093,1
130.4626377,4.68469621,10.07020811,-1.219572407,11.17330868,1
130.4726667,4.487274914,10.26790715,-0.8047568949,11.23446426,1
130.4826967,4.643141218,10.14320008,-0.7099852967,11.17798494,1
130.4927257,4.35660777,9.854726522,-0.4616120211,10.78465353,1
130.5027557,3.6050017,9.436357073,-0.4373974586,10.11099345,1
130.5127847,3.041634459,9.166554263,-0.3340549386,9.663790661,1
130.5228147,2.681156538,9.039358027,-0.1352613008,9.429575258,1
130.5328437,2.289788214,8.83334834,-0.0163992472,9.125318729,1
130.5428737,1.953580331,8.544966588,0.1121589518,8.766157067,1
130.5529027,1.727892717,8.164554339,0.3808102982,8.354075489,1
130.5629327,1.754013691,7.950773703,0.6259078905,8.165973744,1
130.5729617,1.894260036,7.803425623,1.083671347,8.102840003,1
130.5829917,2.030610234,7.938439586,1.654199674,8.359340736,1
130.5930207,2.061216023,8.297669712,2.130236557,8.811233848,1
130.6030507,2.042688535,8.820130125,2.305919659,9.342619405,1
130.6130807,1.466115796,9.075208476,2.346018841,9.48750277,1
130.6231097,0.8883120717,9.083497488,2.472145475,9.455714051,1
130.6331397,0.3655929194,9.049141003,2.550416304,9.408784959,1
130.6431687,0.1229321542,8.949504449,2.623947964,9.327049111,1
130.6531987,-0.1031342129,8.862513083,2.769714957,9.28580076,1
130.6632277,-0.1210018422,8.695023099,2.996234922,9.19758076,1
130.6732577,0.08394408971,8.645912334,3.115262014,9.190413708,1
130.6832867,0.7296263865,8.819292803,3.411109199,9.484089107,1
130.6933167,1.584728905,9.415659683,3.566588709,10.19247605,1
130.7033457,1.994168925,9.894436133,3.40016058,10.65071209,1
130.7133757,2.119059458,10.0992945,3.083880007,10.77016612,1
130.7234047,1.965192901,10.13998878,2.765017304,10.69236533,1
130.7334347,1.517070334,9.824171312,2.327824498,10.20953531,1
130.7434637,0.9528644554,9.357834229,1.986827599,9.613765965,1
130.7534937,0.3331097361,8.715953792,1.66332937,8.879497575,1
130.7635227,-0.05586590633,7.293085318,1.681211325,7.484563179,1
130.7735527,-0.6672345489,4.678981141,1.606252213,4.991804547,1
130.7835817,-1.373554372,0.8031144851,1.303567586,2.056923174,1
130.7936117,-2.824093478,-5.736716141,-0.03842804745,6.394285947,1
130.8036417,-4.100569014,-17.5965184,-1.971526605,18.17523158,1
130.8136707,-1.568501565,-27.7353085,-4.515216126,28.14417722,1
130.8237007,7.489614329,-32.9961373,-5.388919076,34.26193002,1
130.8337297,11.73835676,-37.42681351,-4.410010976,39.47155413,1
130.8437597,8.223412997,-40.36518205,-5.821107835,41.60357844,1
130.8537887,1.114307688,-36.68273193,-4.56127289,36.98201879,1
130.8638187,-4.943013334,-28.88517983,-4.188025819,29.6028133,1
130.8738477,-6.480397772,-21.06605385,-2.356897439,22.16594563,1
130.8838777,-5.749601065,-14.48708489,-0.5734800008,15.59687213,1
130.8939067,-4.573549119,-9.623542818,-0.3583536279,10.6610668,1
130.9039367,-4.075474226,-8.843748198,-1.016730522,9.790562462,1
130.9139657,-4.279850201,-10.46121844,-1.343389025,11.38239444,1
130.9239957,-4.227351268,-9.018339626,-2.068251247,10.17244374,1
130.9340247,-5.944523846,-7.60146104,-4.217673249,10.53130293,1
130.9440547,-7.176447984,-5.872456328,-5.953219825,11.01943625,1
130.9540837,-5.456206495,-2.288057,-5.563125172,8.121191774,1
130.9641137,-4.193631544,0.0738830781,-5.68343865,7.063531633,1
130.9741437,-4.669183547,0.7054174519,-5.960403714,7.604294919,1
130.9841727,-4.436159724,2.114905157,-6.738526615,8.340268453,1
130.9942027,-4.757458962,3.432141926,-6.815447906,8.992404803,1
131.0042317,-5.093579721,4.080757771,-6.471927495,9.191462553,1
131.0142617,-4.93249887,4.906457711,-5.385366307,8.798013562,1
131.0242907,-3.835247219,6.257527639,-3.679429446,8.209992352,1
131.0343207,-2.636483518,7.241726884,-2.202069601,8.015158397,1
131.0443497,-1.752511249,7.833510717,-1.297271451,8.13130365,1
131.0543797,-1.17707594,8.133969308,-0.7678119206,8.254483607,1
131.0644087,-0.8059394212,8.21006965,-0.3278755645,8.256045325,1
131.0744387,-0.5655269104,8.086067748,0.01858712912,8.105840968,1
131.0844677,-0.469162019,7.895240357,0.3089820047,7.915200766,1
131.0944977,-0.4446936873,7.668839675,0.55673913,7.70187074,1
131.1045267,-0.3353897117,7.293860074,0.771813755,7.342246081,1
131.1145572,-0.1329733584,6.769318637,1.028662058,6.848321134,1
131.1245862,0.09268173024,6.184992929,1.325116915,6.32603053,1
131.1346162,0.2675826216,5.566798977,1.58719029,5.794827377,1
131.1446452,0.4625151967,4.845743732,1.904498803,5.22707072,1
131.1546752,0.6061100954,4.039201024,2.136709424,4.609559797,1
131.1647042,0.7838042016,2.969195643,2.307103136,3.840989023,1
131.1747342,0.8361371472,1.724528668,2.554830952,3.193788604,1
131.1847642,0.7582818362,0.116627394,2.857225556,2.958433905,1
131.1947932,0.4912325172,-1.759961625,3.108829199,3.606049542,1
131.2048232,0.2474559571,-3.992812139,3.691860627,5.443676893,1
131.2148522,-0.03465392556,-6.077787153,4.683061913,7.672793915,1
131.2248822,-0.1768380008,-7.614933025,5.677854559,9.500342575,1
131.2349112,-0.6119069153,-8.228024111,5.354333965,9.835837689,1
131.2449412,-1.169672488,-7.811717559,3.374871372,8.589576342,1
131.2549702,-1.307753462,-6.030181462,1.267084615,6.299111922,1
131.2650002,-1.265080921,-3.532088968,-0.08358126998,3.752741403,1
131.2750292,-1.25781634,-1.210826215,-0.6864759815,1.87602008,1
131.2850592,-1.385583118,0.7244045305,-0.893376199,1.800756378,1
131.2950882,-1.447241423,2.117258661,-0.9526332711,2.735836641,1
131.3051182,-1.359110726,2.937544665,-0.794023819,3.332690272,1
131.3151472,-1.200668066,3.355719987,-0.617104615,3.617081495,1
131.3251772,-0.947944462,3.292640224,-0.5696766063,3.473414715,1
131.3352062,-0.7838235705,2.633897586,-0.8286182126,2.870262014,1
131.3452362,-0.7253994343,1.476243612,-1.461124467,2.200087328,1
131.3552652,-0.01032051835,0.2568026948,-1.346660542,1.370966358,1
131.3652952,1.159418079,-0.8861057711,-0.5476840588,1.558650554,1
131.3753252,2.618375275,-1.830442793,0.3447448548,3.213294091,1
131.3853542,3.37527483,-2.393101645,0.3738218888,4.154414334,1
131.3953842,3.387842835,-2.52537151,-0.1323341664,4.227587098,1
131.4054132,3.443180592,-2.178408258,-0.3996525121,4.093980613,1
131.4154432,2.660368516,-1.614965295,-0.7540510833,3.202228378,1
131.4254722,2.177172303,-0.9935501128,-0.7506795788,2.508134943,1
131.4355022,1.547678315,-0.6567499065,-0.4830332226,1.749271191,1
131.4455312,0.4756153717,-0.3328901732,-0.3087505281,0.657535351,1
131.4555612,-0.5104551291,0.04997147441,-0.7402908307,0.9006065185,1
131.4655902,-1.078347531,0.2819422138,-1.329269169,1.734728028,1
131.4756202,-0.7702591266,0.5083844107,-1.359438463,1.643114958,1
131.4856492,-0.899345256,0.780734852,-1.168514008,1.668470493,1
131.4956792,-1.563003721,0.8876067513,-0.9878666923,2.051025836,1
131.5057082,-2.095347244,0.9427658755,-0.7440904246,2.415151782,1
131.5157382,-2.277313911,0.9829035026,-0.6045787096,2.55299302,1
131.5257672,-2.07227954,1.088785468,-0.5248033923,2.399002894,1
131.5357972,-1.883426461,1.067183515,-0.6064334464,2.248096398,1
131.5458262,-1.828162672,0.8826184916,-0.6140202087,2.120899567,1
131.5558562,-1.527359533,0.7168353099,-0.4843611252,1.755359138,1
131.5658852,-1.276414725,0.5405294788,-0.2917831143,1.416525345,1
131.5759152,-0.8075228472,0.4378950566,-0.01966886401,0.9188210346,1
131.5859452,-0.2296078795,0.3472228682,0.04758171737,0.4189839118,1
131.5959742,-0.2363270612,0.1960197186,-0.05220924038,0.3114482537,1
131.6060042,-0.2721858421,0.08145288348,-0.1106334132,0.3048925335,1
131.6160332,-0.1519013071,-0.02484072626,-0.171790063,0.2306575265,1
131.6260632,0.02148296267,0.04970074832,-0.0664781642,0.08573813844,1
131.6360922,0.1077874272,0.222221092,0.05395923894,0.2528081143,1
131.6461222,0.05329576269,0.3186416781,0.1032653002,0.3391705759,1
131.6561512,0.06058512099,0.2914456934,0.0761418575,0.307260039,1
131.6661812,0.1220243009,0.206006763,-0.02895482719,0.2411785613,1
131.6762102,0.1829234905,0.1177535677,-0.08244106293,0.2326444389,1
131.6862402,0.1634499966,-0.08328247726,-0.09201061606,0.2052262797,1
131.6962692,0.2242106071,-0.2614313507,-0.05445742171,0.348686619,1
131.7062992,0.3270281202,-0.2886641729,-0.07078759868,0.4419109415,1
131.7163282,0.4540700631,-0.2237337667,-0.009224603958,0.5062820497,1
131.7263582,0.5106484526,-0.06690559566,0.03350045264,0.5161012316,1
131.7363872,0.6168130582,-0.01127986372,0.04414289676,0.6184934756,1
131.7464172,0.681416605,0.03558264613,0.05846923292,0.6848455049,1
131.7564462,0.729115486,0.08693932593,0.105625273,0.741838619,1
131.7664762,0.7255040994,0.1159228045,0.1435742508,0.7486039409,1
131.7765052,0.7211561099,0.1220653045,0.1209122336,0.7413405706,1
131.7865352,0.6739439365,0.1299286401,0.05700041234,0.6887168708,1
131.7965642,0.6226189779,0.1113075972,0.007203806229,0.6325311594,1
131.8065942,0.5677526531,0.09953890622,-0.04163509905,0.5779139645,1
131.8166242,0.4633910365,0.1331299907,-0.07363161128,0.4877258054,1
131.8266532,0.2946062596,0.1732956845,-0.1329054576,0.3667261964,1
131.8366832,0.1117685039,0.1574661022,-0.2195371835,0.2923770626,1
131.8467122,0.01424279407,0.1182418102,-0.2649829495,0.2905166887,1
131.8567422,0.0008044306934,0.1244012672,-0.2680556613,0.2955167676,1
131.8667712,0.01871664494,0.09670359135,-0.274250165,0.291401871,1
131.8768012,0.03634468451,0.0462403661,-0.2773246676,0.2834926433,1
131.8868302,0.02851584747,0.03033652425,-0.2873462105,0.2903468666,1
131.8968602,-0.08237148106,-0.01143364549,-0.3164133042,0.3271592399,1
131.9068892,-0.1436068855,-0.05859319389,-0.3378141135,0.371718274,1
131.9169192,-0.1284943181,-0.03348349571,-0.295204247,0.3236934997,1
131.9269482,-0.1040737143,0.08385491967,-0.2337284124,0.2692433032,1
131.9369782,-0.04733160272,0.1947222215,-0.1453436182,0.2475515936,1
131.9470072,0.03497672841,0.2157511479,-0.08876479011,0.2359048904,1
131.9570372,0.06271767363,0.1933580661,-0.04186661225,0.2075419512,1
131.9670662,0.05260242909,0.1871541703,-0.01065300565,0.1946976773,1
131.9770962,0.03378740475,0.1278353369,-0.02999972463,0.1355855655,1
131.9871252,-0.0465967539,0.04661692679,-0.04717825949,0.08105666848,1
131.9971552,-0.06427054793,-0.03236960113,-0.0306306392,0.07820952925,1
132.0071842,-0.09354097858,-0.1085213989,-0.04597545069,0.1504677732,1
132.0172142,-0.07074370801,-0.1419318044,-0.05500413638,0.1678534014,1
132.0272442,-0.0329692331,-0.1227248704,-0.05250269752,0.1374950814,1
132.0372732,0.02116414323,-0.1008814269,-0.06837149262,0.1236917308,1
132.0473032,0.03608199835,-0.04612693012,-0.07155475337,0.09246451761,1
132.0573322,0.05123184174,0.03260232031,-0.0821218415,0.1021352522,1
132.0673622,0.05988118932,0.05962698162,-0.1219494931,0.1483671549,1
132.0773912,0.04362242147,0.06255058944,-0.1516434449,0.1697387,1
132.0874212,0.02479321763,0.07643831134,-0.1385708249,0.1601854943,1
132.0974502,0.01759471044,0.1739739615,-0.1085319239,0.2058049844,1
132.10748,0.001791586876,0.2024487323,-0.04580182493,0.2075728936,1
132.117509,-0.02729100198,0.1023286128,-0.04266187012,0.1141752116,1
132.127539,-0.04872294769,-0.03484589696,-0.01939872265,0.06296405805,1
132.137568,-0.05147113904,-0.04841786921,0.01398420095,0.07203558905,1
132.147598,-0.007972093821,-0.01205461979,0.01466657102,0.02059068828,1
132.157627,0.03152555555,0.0220492655,-0.00879541833,0.03946378271,1
132.167657,0.002381424755,-0.01346379876,-0.0379531439,0.04034087497,1
132.177686,-0.01018599585,-0.02190951705,-0.06318972666,0.0676514819,1
132.187716,0.01279473111,0.01089102387,-0.06311839063,0.06531654293,1
132.197745,0.05337265357,0.01928002417,-0.07248972315,0.09206041193,1
132.207775,0.05628588259,0.07589393556,-0.07806328911,0.1225637269,1
132.217804,0.008467645347,0.08478462696,-0.08958519101,0.12363511,1
132.227834,-0.1610375816,0.03791510046,-0.2140747511,0.2705525025,1
132.237863,0.1874643651,0.3538495177,-0.01885964591,0.4008840925,1
132.247893,0.2032546248,0.3470790267,-0.01091379147,0.4023622797,1
132.257923,0.1197916147,0.3285784364,-0.0465315209,0.3528158191,1
132.267952,0.2266272613,0.4709020042,-0.07411926907,0.5278278879,1
132.277982,0.1937191316,0.4737577844,-0.1170624268,0.5250496662,1
132.288011,0.248183168,0.5830977935,-0.1234353071,0.6456269795,1
132.298041,0.1420009477,0.7857184339,-0.1344333716,0.8096851597,1
132.30807,0.2105069263,1.085167211,-0.06204484183,1.107136218,1
132.3181,0.08638457134,1.300685055,-0.05682327826,1.304788409,1
132.328129,0.1328351448,1.604142099,-0.07247455694,1.611263359,1
132.338159,0.07563431919,1.869563005,-0.1304157497,1.8756318,1
132.348188,0.03488785073,2.220605859,-0.173378788,2.227637257,1
132.358218,0.02812788472,2.654137139,-0.2408626002,2.665192286,1
132.368247,-0.02672601476,3.120456095,-0.2702747893,3.132253021,1
132.378277,-0.1064009061,3.652952669,-0.2884799856,3.6658703,1
132.388306,-0.173768578,4.279223964,-0.3486811638,4.296921201,1
132.398336,-0.1559551817,4.99423085,-0.3610889554,5.009695503,1
132.408365,-0.2436474828,5.711239822,-0.3485326445,5.727049799,1
132.418395,-0.4326046421,6.3388168,-0.3462569082,6.362989788,1
132.428424,-0.591773892,6.843586462,-0.3429052842,6.877678099,1
132.438454,-0.7115304235,7.219924371,-0.3877704582,7.26525632,1
132.448483,-0.8213592598,7.46389769,-0.340850061,7.516686672,1
132.458513,-0.8282373396,7.656782717,-0.2940039964,7.70705761,1
132.468542,-0.7943069704,7.793073712,-0.2935022322,7.838945401,1
132.478572,-0.834035731,7.834359732,-0.4209066293,7.889865044,1
132.488601,-0.9248413821,7.766090566,-0.5364573316,7.839341856,1
132.498631,-0.9042514354,7.594246745,-0.5798660374,7.669843473,1
132.508661,-0.9790823472,7.232724511,-0.7128948712,7.333425202,1
132.51869,-1.150336476,6.5243969,-0.8801300628,6.683237078,1
132.52872,-1.457270859,5.491228977,-1.132294746,5.793041121,1
132.538749,-1.735680624,4.127164198,-1.370929557,4.682469369,1
132.548779,-1.980350054,2.476440255,-1.367667103,3.453267435,1
132.558808,-1.885914451,0.6213368297,-1.136992692,2.288118256,1
132.568838,-1.368217472,-1.042835709,-0.7962814289,1.895676523,1
132.578867,-1.136247903,-2.721581263,-0.5091628213,2.992876651,1
132.588897,-1.105304583,-4.410158325,-0.08373549029,4.54732958,1
132.598926,-0.7632689264,-5.525146337,0.7997488278,5.63466234,1
132.608956,-0.8235157129,-6.4859766,1.696771351,6.754635712,1
132.618985,-0.8774046756,-7.175222992,2.351061918,7.601391721,1
132.629015,-1.066666182,-7.693951128,2.724522412,8.231505517,1
132.639044,-1.596274963,-8.446344525,2.510486253,8.954963474,1
132.649074,-1.699292962,-9.225608218,2.760609673,9.778568879,1
132.659103,-1.358357751,-10.08916596,2.749536216,10.54496823,1
132.669133,-1.239158459,-10.84355852,1.952808791,11.08745855,1
132.679162,-1.282589823,-11.63158075,0.9577049267,11.74120548,1
132.689192,-1.011046152,-12.25883029,0.4091833274,12.30725661,1
132.699221,-0.3927711067,-12.71803084,-0.02508002356,12.72411909,1
132.709251,0.2344054834,-13.21592009,-0.08965141073,13.21830273,1
132.71928,0.6006250051,-13.66041607,0.285926068,13.67660306,1
132.72931,0.8039618929,-14.18228357,0.6842690961,14.22152405,1
132.73934,1.107415063,-14.23051608,1.169654069,14.32138425,1
132.749369,1.518334063,-13.91123472,1.37475466,14.06121403,1
132.759399,2.024946475,-13.51882574,1.441934343,13.74548043,1
132.769428,2.040672562,-13.31164252,1.078724676,13.51028563,1
132.779458,1.865014164,-13.39400873,0.3638874328,13.52812485,1
132.789487,1.50275518,-14.07181329,-0.4738261968,14.15975684,1
132.799517,0.977234627,-15.16137761,-0.8078565039,15.21430218,1
132.809546,0.5940259472,-15.99563612,-0.6737132639,16.02083429,1
132.819576,0.4483107749,-16.42250041,-0.6430579933,16.44119904,1
132.829605,0.5203423322,-16.20069798,-0.5632312936,16.21883475,1
132.839635,0.642477584,-15.22101804,-0.2113166195,15.23603697,1
132.849664,0.778472418,-13.54326008,0.2802927142,13.56851049,1
132.859694,0.9458575176,-11.75266957,0.7321649551,11.8133803,1
132.869723,1.074772981,-10.2648666,0.8466546071,10.35564809,1
132.879753,1.006764966,-9.130080501,0.5825089788,9.20387214,1
132.889782,0.9785673536,-8.187703466,0.4784484208,8.259842311,1
132.899812,0.8578749754,-7.021741183,0.8024426401,7.119319694,1
132.909841,0.5433935912,-5.215755538,0.972186141,5.333341197,1
132.919871,0.6895815839,-2.856740822,1.101328915,3.138377967,1
132.9299,0.9839076157,-0.06248685479,1.365930626,1.684560857,1
132.93993,1.175368553,2.96097972,1.731133683,3.625702134,1
132.94996,1.305288276,5.682915325,1.922265129,6.139577127,1
132.959989,1.411071716,7.756984112,1.972847053,8.127364357,1
132.970019,1.41299428,9.192485495,1.834719447,9.479690811,1
132.980048,1.478704121,9.885719104,1.70764074,10.14051502,1
132.990078,1.455865481,10.14049165,1.678640889,10.38108618,1
133.000107,1.445634315,10.27450281,1.633001032,10.50342606,1
133.010137,1.400317371,10.31727052,1.609985222,10.53560687,1
133.020166,1.344842351,10.33708673,1.566449193,10.54123931,1
133.030196,1.41308155,10.3292959,1.594706447,10.54676452,1
133.040225,1.556565352,10.33362752,1.592759324,10.57088623,1
133.050255,1.708701863,10.37884521,1.742712339,10.66194805,1
133.060284,1.9117264,10.42138955,1.677794212,10.72730401,1
133.070314,2.075225367,10.34653115,1.530403447,10.66299217,1
133.080343,2.153556568,10.31059884,1.426148762,10.62921233,1
133.090373,2.258299643,10.40075355,1.321971259,10.72488693,1
133.100402,2.491010932,10.38534731,1.253639528,10.75324073,1
133.1104315,2.672044237,10.35726547,1.246495399,10.7687752,1
133.1204605,2.875744565,10.35665853,1.166512579,10.81161571,1
133.1304905,3.035709475,10.5212366,1.017183974,10.99757314,1
133.1405195,3.03480725,10.59570791,0.9695151329,11.06431384,1
133.1505495,2.916775939,10.64014909,0.8127045035,11.06258754,1
133.1605785,2.685453656,10.7847519,0.6901737607,11.1354782,1
133.1706085,2.61938889,10.59007119,0.51129457,10.92118254,1
133.1806375,2.47483461,10.34125112,0.3448886597,10.63885469,1
133.1906675,2.203190658,10.31660978,0.3335368752,10.55451246,1
133.2006965,1.876708302,10.41639719,0.2346487824,10.58670981,1
133.2107265,1.644695756,10.3996917,0.1182622389,10.52960576,1
133.2207555,1.396399882,10.32626938,0.1451290619,10.42126837,1
133.2307855,1.235267137,10.30484401,0.05358507195,10.37875553,1
133.2408155,1.138233471,10.29782852,0.1431421963,10.36153162,1
133.2508445,1.009373044,10.31844815,0.1136266394,10.36832277,1
133.2608745,0.9340163943,10.30620992,0.2004577919,10.35038806,1
133.2709035,0.8882854669,10.31274828,0.2793810968,10.35470337,1
133.2809335,0.8820393249,10.32878134,0.3560673666,10.37248772,1
133.2909625,0.91685372,10.2985068,0.5629629064,10.35455409,1
133.3009925,0.8173532593,10.29798289,0.483093522,10.34165834,1
133.3110215,0.8281409336,10.28030325,0.6099511313,10.33162585,1
133.3210515,0.764284734,10.28447348,0.5687844674,10.32850627,1
133.3310805,0.7508334336,10.27896073,0.6475183225,10.32666764,1
133.3411105,0.741385795,10.25890478,0.6976371467,10.30929085,1
133.3511395,0.7472431701,10.22571131,0.7743303236,10.28217543,1
133.3611695,0.7496353392,10.19338556,0.8091072234,10.25288822,1
133.3711985,0.6932888648,10.11980537,0.8608482114,10.17998869,1
133.3812285,0.5549112173,9.923243026,0.9331022552,9.982452525,1
133.3912575,0.4851825859,9.850626454,1.014255542,9.914583097,1
133.4012875,0.5750848422,9.769801562,1.150141325,9.854063639,1
133.4113165,0.7022240681,9.626644181,1.262879152,9.734488203,1
133.4213465,0.838568054,9.473778083,1.383785976,9.610958911,1
133.4313755,1.036831642,9.331999476,1.426610838,9.497181295,1
133.4414055,1.425557608,8.993198937,1.678528769,9.258903847,1
133.4514345,1.280196704,8.184906743,2.061308555,8.537013233,1
133.4614645,1.240193124,6.262587819,3.655530707,7.356696944,1
133.4714935,3.896179299,-17.53740656,4.921456404,18.6269046,1
133.4815235,-18.84413529,-126.4000653,9.073313978,128.1187066,1
133.4915535,-29.64911856,-132.9917298,6.257617686,136.40025,1
133.5015825,15.34281321,-44.01650159,7.114475684,47.15368589,1
133.5116125,11.44040721,-12.63409289,6.747390994,18.33113487,1
133.5216415,-0.06481697023,-5.070225357,1.016373257,5.171498914,1
133.5316715,-4.618637291,-8.379277546,-3.474649429,10.17925789,1
133.5417005,-7.018066208,-13.7339144,-7.677773051,17.22851871,1
133.5517305,-6.333413973,-12.90979613,-10.49451483,17.80196085,1
133.5617595,-1.038305579,-5.334900159,-9.351140921,10.81587143,1
133.5717895,1.178455444,-1.747871922,-11.30300115,11.49789757,1
133.5818185,1.532396178,-0.6215490836,-18.71451188,18.78742974,1
133.5918485,2.965816537,0.5069547665,-33.89529874,34.02858133,1
133.6018775,3.710307131,1.559889202,-29.93721321,30.20656168,1
133.6119075,2.449550518,3.530896136,-10.56092633,11.40178452,1
133.6219365,2.270978891,4.941616434,-1.492483084,5.639541104,1
133.6319665,2.083689504,4.857843375,0.6826600885,5.329768194,1
133.6419955,1.570538004,4.625782589,1.081543107,5.003417799,1
133.6520255,1.746420059,4.829206637,1.249756976,5.285178546,1
133.6620545,2.294906721,5.287525433,1.656857672,5.997474419,1
133.6720845,2.474505119,5.588086935,1.778154652,6.364882179,1
133.6821135,2.08727414,5.730922135,1.911881644,6.391828632,1
133.6921435,1.703452379,5.876526575,1.962936022,6.425607553,1
133.7021725,1.395367995,6.131989673,1.891712258,6.567109292,1
133.7122025,1.301335704,6.671307608,1.725557778,7.012657803,1
133.7222325,1.489590467,7.241434523,1.60692245,7.565676009,1
133.7322615,1.789902732,7.727066249,1.473913497,8.067448518,1
133.7422915,1.977830927,8.071674242,1.266886979,8.406470298,1
133.7523205,2.146119202,8.371256336,1.065251595,8.707383145,1
133.7623505,2.170804246,8.592638937,0.7648567379,8.895551743,1
133.7723795,2.160074459,8.692595335,0.3276522374,8.962951038,1
133.7824095,2.111256787,8.551484479,-0.05246289991,8.808407596,1
133.7924385,1.95807684,7.972007282,-0.3271335163,8.215472071,1
133.8024685,1.778698882,6.760280011,-0.554185724,7.012294729,1
133.8124975,1.337822476,4.76145261,-0.8485619688,5.018092999,1
133.8225275,0.6444551124,1.719610575,-1.23900804,2.215293173,1
133.8325565,-0.1540636075,-2.460203122,-1.702541968,2.99582779,1
133.8425865,-0.5430338413,-6.942595026,-1.762330917,7.183336391,1
133.8526155,-0.03381576374,-10.16290402,-1.059572779,10.21804561,1
133.8626455,1.156920149,-11.22987821,0.6658646194,11.30893472,1
133.8726745,2.389055079,-9.85124392,2.653917868,10.47844793,1
133.8827045,1.814963606,-7.323130651,4.302161422,8.685098061,1
133.8927335,-0.3923393995,-4.708433567,4.976816672,6.862359729,1
133.9027635,-2.104350202,-2.269144181,4.586050758,5.532555164,1
133.9127925,-2.609774898,-0.09342213392,3.664459405,4.499768377,1
133.9228225,-2.346799444,1.319527123,2.491822525,3.668487285,1
133.9328515,-1.493289415,2.080194916,1.299051343,2.871351347,1
133.9428815,-0.8361136852,2.681743598,0.1216478864,2.811695757,1
133.9529105,-0.3688846095,3.292897502,-0.7106542182,3.388846298,1
133.9629405,-0.03037570059,3.80903649,-1.249537121,4.008868254,1
133.9729695,0.07654853135,4.210693427,-1.574738206,4.496176068,1
133.9829995,0.2516985872,4.385235153,-1.49805782,4.640885342,1
133.9930295,0.4113265512,4.309856942,-1.247324535,4.505538246,1
134.0030585,0.4422775447,4.09781059,-0.9483213151,4.229299514,1
134.0130885,0.5141595595,4.029035055,-0.5957961917,4.105174373,1
134.0231175,0.7311294863,4.316966572,-0.2250160611,4.384219764,1
134.0331475,0.9168119855,4.822690499,0.09401034554,4.909961895,1
134.0431765,1.101130695,5.395677288,0.3829306448,5.520186417,1
134.0532065,1.274789199,5.963812641,0.7353844321,6.142714301,1
134.0632355,1.500354898,6.439481295,1.054114988,6.695456861,1
134.0732655,1.762624301,6.759360829,1.385291927,7.121435036,1
134.0832945,2.026959964,7.022459806,1.603513523,7.482964923,1
134.0933245,1.968609576,7.246872434,1.516716285,7.661136471,1
134.1033535,1.595135048,7.331255942,1.264019505,7.608515941,1
134.1133852,0.7579046177,7.354814374,0.8392964709,7.441245356,1
134.1234142,-0.5476351614,7.552728006,0.2754272461,7.577563247,1
134.1334442,-1.321700533,7.761532661,-0.1322628486,7.874374579,1
134.1434732,-1.812520639,7.818628968,-0.4494930089,8.038546757,1
134.1535032,-2.238239892,7.599272427,-0.7227246255,7.954934954,1
134.1635322,-2.428282148,7.031088542,-0.8711614573,7.489438067,1
134.1735622,-2.601475945,5.935665314,-0.7692661232,6.526221739,1
134.1835912,-2.832730693,4.250811174,-0.6836348194,5.153747703,1
134.1936212,-3.081615381,1.898272834,-0.7039772826,3.687190953,1
134.2036502,-3.095113678,-0.8376352769,-0.7212061036,3.286563521,1
134.2136802,-2.36419301,-3.161440984,-0.3845210874,3.966355273,1
134.2237092,-1.554174864,-4.230351182,-0.09330635905,4.507775139,1
134.2337392,-1.284673186,-4.04798705,-0.02786139786,4.247041395,1
134.2437682,-2.018739802,-3.436412147,-0.2885256121,3.995933666,1
134.2537982,-2.972347,-3.766103894,-0.3565690577,4.810979808,1
134.2638282,-3.039450524,-4.460009347,0.09630831957,5.398075412,1
134.2738572,-2.572876044,-4.772220258,0.1608546368,5.423988527,1
134.2838872,-2.42485568,-5.226198081,-0.2977484071,5.769031597,1
134.2939162,-2.032700614,-5.637112915,-0.5686622605,6.019326421,1
134.3039462,-1.212978282,-5.622196668,-0.9530541245,5.829984893,1
134.3139752,-0.6736996691,-5.663361651,-1.300219032,5.849624429,1
134.3240052,-0.4844383085,-6.080641764,-1.253358861,6.227342384,1
134.3340342,-0.0537847361,-6.706059365,-0.7674474929,6.750044493,1
134.3440642,0.64751306,-7.332925907,-0.04055394888,7.361570494,1
134.3540932,1.621627613,-7.897693264,0.8575772059,8.107938929,1
134.3641232,2.330363798,-8.949512635,1.7651598,9.414890385,1
134.3741522,3.301216335,-9.963395855,2.559066675,10.80352297,1
134.3841822,4.134623491,-10.45018825,2.640027807,11.54431864,1
134.3942112,4.642136081,-10.41275438,2.044428813,11.5825114,1
134.4042412,4.885803883,-10.17417161,1.644335275,11.40564273,1
134.4142702,4.74150688,-10.08135057,1.424524259,11.2314196,1
134.4243002,4.400944868,-10.17331324,1.290070605,11.15925177,1
134.4343292,4.645749661,-10.20142431,1.282662767,11.28260926,1
134.4443592,4.712512584,-10.34103009,0.986516424,11.40692302,1
134.4543882,3.605317158,-10.75445864,0.5460661342,11.35583025,1
134.4644182,2.746019993,-11.09962212,0.5203547575,11.4460913,1
134.4744472,2.576001965,-11.29068574,0.8885369702,11.61485551,1
134.4844772,2.661822134,-11.17771052,0.950828528,11.52955265,1
134.4945062,2.350409954,-10.88780791,0.7389955994,11.16310452,1
134.5045362,1.450323344,-10.55975338,0.7999259254,10.68885919,1
134.5145662,0.8696261247,-9.691403849,0.8069210225,9.763743119,1
134.5245952,0.1738558477,-9.071817091,0.4363263217,9.083967847,1
134.5346252,-0.5150288942,-8.989547936,0.1273020709,9.005189208,1
134.5446542,-1.058146058,-9.314925022,0.04298280917,9.374931934,1
134.5546842,-1.384961705,-9.813847468,-0.08689788379,9.911471752,1
134.5647132,-1.542259846,-10.26995836,-0.2791175335,10.38886503,1
134.5747432,-1.46272982,-10.63984152,-0.3502680981,10.74562673,1
134.5847722,-1.214040283,-11.08699097,-0.3626630259,11.15915709,1
134.5948022,-1.045073292,-11.85199973,-0.1893550622,11.8994929,1
134.6048312,-0.5077179012,-12.18699724,0.3021694869,12.20131082,1
134.6148612,-0.01173488673,-11.47895439,0.5315569264,11.49126122,1
134.6248902,-0.07462001,-10.13507712,0.5500902611,10.15026875,1
134.6349202,-0.2210012349,-8.708126709,0.663095305,8.736132308,1
134.6449492,-0.2596126474,-7.442443671,0.7241186017,7.482092907,1
134.6549792,-0.08041712232,-6.306656529,0.5774751109,6.333550426,1
134.6650082,0.3340162738,-5.060708429,0.4854381824,5.094898125,1
134.6750382,0.786901691,-3.647778468,0.7072616637,3.798120731,1
134.6850672,1.193031091,-2.005769801,1.204810599,2.626405196,1
134.6950972,1.643148436,0.02908814371,1.654262677,2.33181644,1
134.7051262,2.002504131,2.161692238,1.881085528,3.4959146,1
134.7151562,2.276125172,4.276581607,1.997263856,5.240129669,1
134.7251852,2.35639224,6.239834549,2.027566466,6.971308727,1
134.7352152,2.295231534,7.829836911,1.845263146,8.365370878,1
134.7452442,2.148745771,8.997065701,1.58432647,9.384795681,1
134.7552742,1.909190755,9.721070282,1.197689275,9.978911582,1
134.7653032,1.708651139,10.1653657,0.8962296402,10.34685344,1
134.7753332,1.53900821,10.36261333,0.5958973485,10.49320709,1
134.7853632,1.472857051,10.46085591,0.3118799579,10.56863678,1
134.7953922,1.494391908,10.52547934,0.1302490858,10.63183368,1
134.8054222,1.400952378,10.52152194,-0.04320800006,10.6144693,1
134.8154512,1.32820059,10.45001751,-0.04776941299,10.53419502,1
134.8254812,1.291136844,10.39572378,-0.008553891778,10.47559929,1
134.8355102,1.366813848,10.37267756,0.03764495909,10.46241067,1
134.8455402,1.51320357,10.34770878,0.08369469683,10.45810054,1
134.8555692,1.74754097,10.34033077,0.1285761791,10.48774864,1
134.8655992,1.961819935,10.3076308,0.2475424776,10.49558323,1
134.8756282,2.13020235,10.30033347,0.3684488457,10.52475112,1
134.8856582,2.286286609,10.34802102,0.4553624439,10.60735596,1
134.8956872,2.49261073,10.407962,0.2977256213,10.70641965,1
134.9057172,2.597739574,10.50114791,0.1510020236,10.81874114,1
134.9157462,2.614747663,10.54838171,0.0836847657,10.86794669,1
134.9257762,2.630792423,10.67305371,-0.1282949281,10.99325265,1
134.9358052,2.542553261,10.62832368,0.004875399275,10.92821417,1
134.9458352,2.3732024,10.59642712,0.1678150892,10.86022648,1
134.9558642,2.303514846,10.71737092,0.02158439359,10.96214788,1
134.9658942,2.195840854,10.71890056,0.01700600546,10.94151888,1
134.9759232,2.0655798,10.80461957,-0.1165882176,11.00090981,1
134.9859532,1.85958824,10.91631191,-0.2757213793,11.07700124,1
134.9959822,1.70052804,10.876897,-0.4709358815,11.01909545,1
135.0060122,1.514577666,10.84940339,-0.6505805093,10.97391245,1
135.0160412,1.372988216,11.01922876,-0.7369947553,11.12886608,1
135.0260712,1.185191656,11.0523275,-0.7615513068,11.14174954,1
135.0361002,0.9865879793,10.9877146,-0.7006613266,11.05414648,1
135.0461302,0.7963318612,10.92932314,-0.6450712627,10.97726585,1
135.0561592,0.6565072471,10.88536728,-0.6161708146,10.92254041,1
135.0661892,0.5617258548,10.80746716,-0.594642536,10.83838005,1
135.0762182,0.5027247811,10.72998103,-0.5995378615,10.75846972,1
135.0862482,0.4352733113,10.64847669,-0.5970469111,10.67407999,1
135.0962772,0.3710139096,10.6226624,-0.7464216363,10.65531572,1
135.1063072,0.3917062191,10.57524499,-0.7320830941,10.60778893,1
135.1163359,0.3511871342,10.50501876,-0.6272431022,10.5295862,1
135.1263649,0.3645882216,10.45539929,-0.5761168027,10.47760514,1
135.1363949,0.4125036323,10.43492936,-0.5494183795,10.4575222,1
135.1464239,0.4437753456,10.37927088,-0.50250266,10.40089946,1
135.1564539,0.5152146895,10.2984647,-0.4734829652,10.32220943,1
135.1664829,0.5400780006,10.17373891,-0.4585825056,10.19837956,1
135.1765129,0.5089902188,9.791757272,-0.3768004239,9.81221484,1
135.1865419,0.3711514654,9.496050712,-0.4004021251,9.511732461,1
135.1965719,0.5163968869,9.147169574,-0.6525077516,9.184941117,1
135.2066009,1.620156015,7.936559706,-1.937022332,8.328621795,1
135.2166309,4.517182252,4.206681068,-3.678212056,7.185425877,1
135.2266599,10.52660551,-33.72527574,-0.5244367719,35.33381781,1
135.2366899,-2.214861701,-139.9042333,5.756527677,140.0401289,1
135.2467189,-4.608782979,-101.9986802,8.450255728,102.4518348,1
135.2567489,14.51811606,-21.70215373,8.119602699,27.34386803,1
135.2667779,10.18533043,-8.954284548,8.198626649,15.84732301,1
135.2768079,1.781120068,-9.37292063,5.174439113,10.85351786,1
135.2868369,-6.645730718,-15.36935255,0.07906751186,16.74481968,1
135.2968669,-8.38484468,-15.50678317,-4.012698812,18.07948274,1
135.3068959,-3.259493236,-8.598597835,-3.480935186,9.832450897,1
135.3169259,0.6120232384,-4.040204991,-4.410629611,6.01261028,1
135.3269549,1.449943421,-2.871657069,-6.328016993,7.098770972,1
135.3369849,0.4970718026,-1.729612822,-7.514718765,7.72720124,1
135.3470139,-0.2187247494,0.1971312743,-8.711520433,8.716495254,1
135.3570439,-0.3949744472,2.259543053,-9.16896624,9.45153329,1
135.3670739,-0.4318513745,3.850169898,-9.383707573,10.15205751,1
135.3771029,-0.5675570637,5.094338105,-9.550381286,10.83901215,1
135.3871329,-1.520564191,6.131550547,-8.551819525,10.63210444,1
135.3971619,-2.348391349,6.980899551,-7.108464162,10.23612052,1
135.4071919,-2.897397097,7.613001689,-6.101846691,10.17768332,1
135.4172209,-3.451293311,8.070279096,-5.08919314,10.14597048,1
135.4272509,-4.107970712,8.132770044,-4.242913924,10.05085521,1
185.585058,-1.872601218,-8.03761538,0.4668066144,8.266063437,1
185.595087,-0.4498426723,-6.353301523,5.253188828,8.256076037,1
185.605117,1.262736626,-3.41138431,8.6600854,9.393036029,1
185.615146,4.466945314,1.180954544,11.81863786,12.68969877,1
185.625176,10.15333213,4.453869186,22.87354048,25.41900781,1
185.635206,6.702805974,2.516434625,14.52408841,16.19287483,1
185.645235,-0.7164429617,2.18183765,-1.673193038,2.841351965,1
185.655265,0.1036138308,0.1362974274,-3.529255992,3.533406383,1
185.665295,1.58030417,-1.5015948,-2.415089514,3.253429817,1
185.675324,4.963471572,-1.891542689,-1.705688354,5.57883111,1
185.685354,7.680122463,-2.444502178,-3.358990919,8.73170613,1
185.695383,7.937110514,-2.639065356,-6.567708396,10.63471593,1
185.705413,5.52230342,-0.231849702,-7.889865012,9.633252787,1
185.715443,3.33816109,3.132786119,-8.622045169,9.7620352,1
185.725472,0.3748521316,6.913359532,-11.73934494,13.62891315,1
185.735502,-6.832056922,11.09470578,-15.82312455,20.49733565,1
185.745532,-5.788830619,11.88934356,-13.94214544,19.21589107,1
185.755561,-1.224209614,10.21190603,-7.183390968,12.54523096,1
185.765591,0.2120013285,10.66940271,-4.034098451,11.40855157,1
185.77562,0.3996025184,11.06519372,-2.726835571,11.40323754,1
185.78565,0.2463576673,11.01293715,-1.838175151,11.1680063,1
185.79568,0.3385934012,10.97541323,-1.320085678,11.05970014,1
185.805709,0.0976961562,11.07057783,-1.305956028,11.14776925,1
185.815739,-0.1989747553,11.2498558,-1.419419347,11.34079353,1
185.825769,-0.0728215161,11.29579504,-2.372149317,11.5424166,1
185.835798,0.122594039,11.44230404,-2.910048718,11.80718996,1
185.845828,0.1644910202,11.50362262,-3.037362191,11.89898987,1
185.855857,0.1238845195,11.5593805,-2.942418611,11.92864,1
185.865887,0.01405414827,11.74600842,-2.809319319,12.07730046,1
185.875917,-0.03609647021,11.72674302,-2.58881877,12.00915432,1
185.885946,-0.2237168097,11.62621067,-2.117980793,11.81967286,1
185.895976,-0.4072076263,11.53339782,-1.711319077,11.66677746,1
185.906006,-0.3728126959,11.36471032,-1.582558857,11.48042345,1
185.916035,-0.3534179932,11.12133167,-1.501951334,11.22785732,1
185.926065,-0.2876764685,10.89854339,-1.421099837,10.99456823,1
185.936094,-0.2725577616,10.83980577,-1.344887082,10.92631677,1
185.946124,-0.09616001956,10.81560883,-1.233644389,10.88616184,1
185.956154,0.0672629519,10.70817793,-1.130363849,10.76788379,1
185.966183,0.2098890218,10.5302343,-1.149073624,10.59482222,1
185.976213,0.394754263,10.33267559,-1.021609147,10.39055826,1
185.986243,0.5371834827,10.3199731,-1.000549303,10.38226901,1
185.996272,0.679718062,10.30527905,-1.061009513,10.38202938,1
186.006302,0.7848173779,10.26189388,-1.006492413,10.34095891,1
186.016331,0.8821013054,10.22474067,-0.8868145267,10.30096425,1
186.026361,0.9659698199,10.16498446,-0.647057635,10.23126045,1
186.036391,1.019168226,10.09999032,-0.3993689952,10.15913402,1
186.04642,1.118909373,10.03762743,-0.1428088868,10.10080774,1
186.05645,1.292055734,10.03038039,0.09237255871,10.11367744,1
186.066479,1.450903241,10.08248025,0.2928016627,10.19054763,1
186.076509,1.600928469,10.07594306,0.4542649215,10.21244129,1
186.086539,1.754989884,10.02889987,0.5420924395,10.19571902,1
186.096568,1.935534946,9.97636381,0.6233003247,10.18148485,1
186.106598,2.141567437,9.886626592,0.6470669174,10.1365868,1
186.116628,2.24914378,9.643599352,0.6420956147,9.923202255,1
186.126657,2.282952965,9.378951448,0.538823846,9.667829935,1
186.136687,2.420666589,9.090240498,0.2701261604,9.410901507,1
186.146717,2.639631366,8.488470206,-0.3316236663,8.895603096,1
186.156746,4.556821112,6.163582179,-1.509678576,7.812393572,1
186.1667752,8.414326926,-12.25133767,-4.034267728,15.40037299,1
186.1768042,-0.2143171182,-86.38852289,2.243436313,86.4179138,1
186.1868342,-17.31492702,-94.54043029,5.058884683,96.24599717,1
186.1968642,10.47550553,-35.39444063,1.888583705,36.96037597,1
186.2068932,18.84867741,-22.61663955,5.536936662,29.95734788,1
186.2169232,5.302715914,-13.39906073,9.781842148,17.41660301,1
186.2269532,-12.21997671,-6.200048924,3.138573985,14.05770551,1
186.2369822,-14.56242159,-5.391864903,-4.048827003,16.04772039,1
186.2470122,-19.32282345,-3.52431451,-8.569893268,21.42977764,1
186.2570412,-17.18956739,-1.285936038,-11.49762572,20.72028609,1
186.2670712,-9.535905919,0.6236499882,-10.78715627,14.4112866,1
186.2771012,-1.513904651,2.476771792,-9.002208327,9.458650039,1
186.2871302,2.527397862,3.736014122,-8.546743557,9.663972625,1
186.2971602,3.448572309,3.983182359,-9.261307808,10.65505584,1
186.3071902,3.638447481,3.697336544,-12.64847471,13.67086354,1
186.3172192,3.346466768,2.805078333,-14.35265038,15.00219575,1
186.3272492,1.906342284,2.01353081,-9.303999499,9.708390902,1
186.3372792,1.249993789,2.17485432,-2.365056936,3.44760353,1
186.3473082,1.191483333,2.695519638,0.2858630642,2.9609418,1
186.3573382,1.067178837,2.970341697,1.067942776,3.332011741,1
186.3673672,1.39715622,3.486354386,1.711316592,4.127386205,1
186.3773972,1.937415265,4.214925057,2.39085953,5.218752766,1
186.3874272,2.375337803,4.902483358,3.036169066,6.236577215,1
186.3974562,2.461285442,5.240920785,3.303620418,6.666264664,1
186.4074862,2.605811948,5.36720544,3.395368202,6.8648143,1
186.4175152,2.763186249,5.33482473,3.379034297,6.892998326,1
186.4275452,2.935543748,5.190019603,3.294554895,6.812327982,1
186.4375752,3.123212765,5.04392809,3.52642477,6.901546219,1
186.4476042,3.253363307,4.868989922,3.59315758,6.870386966,1
186.4576342,3.356502929,4.592621275,3.554397265,6.707609261,1
186.4676642,3.439257695,4.15651722,3.562584536,6.46507057,1
186.4776932,3.446714357,3.577051132,3.525073771,6.091081985,1
186.4877232,3.376587822,2.837326312,3.441528461,5.594272434,1
186.4977522,3.151946568,1.982983201,3.304884586,4.978880564,1
186.5077822,2.846349443,1.070808789,3.123188207,4.359201898,1
186.5178122,2.527992817,0.231771934,2.835698155,3.806001831,1
186.5278412,2.110490509,-0.632516706,2.52367494,3.350101905,1
186.5378712,1.609998085,-1.683893443,2.206069973,3.208478719,1
186.5479012,1.05416849,-2.846306466,1.909067671,3.585703707,1
186.5579302,0.4348404711,-4.16224983,1.71350345,4.522112776,1
186.5679602,-0.2654209059,-5.408246462,1.530988461,5.627033297,1
186.5779902,-0.9736105227,-6.061694446,1.311375227,6.277878782,1
186.5880192,-1.393258758,-6.037408036,1.364393101,6.344527902,1
186.5980492,-1.395233363,-5.45277184,1.615110891,5.855593912,1
186.6080782,-1.702052848,-4.505552725,1.447197568,5.029052601,1
186.6181082,-2.254631099,-2.947240518,1.23920129,3.9121871,1
186.6281382,-3.493319297,-1.203065205,0.9083705065,3.80470532,1
186.6381672,-4.376510231,0.2229192495,0.464303129,4.406712174,1
186.6481972,-4.575202712,1.201431493,0.2394563448,4.736375917,1
186.6582272,-4.323893183,1.867255694,0.1640940674,4.712708664,1
186.6682562,-3.732817157,2.257324035,-0.001637512743,4.362274453,1
186.6782862,-2.884315706,2.241632447,-0.118772445,3.654900821,1
186.6883152,-1.947882073,1.943453684,-0.271017276,2.764906356,1
186.6983452,-0.9856949633,1.47185937,-0.384353857,1.812647912,1
186.7083752,-0.1796682724,1.004321269,-0.3333860171,1.073353686,1
186.7184042,0.1901420975,0.6653996927,-0.2917303066,0.7510108788,1
186.7284342,0.3613190433,0.4051360309,-0.2796664774,0.6106553801,1
186.7384642,0.5653339523,0.1200217026,-0.1716461849,0.6028848145,1
186.7484932,0.7220980963,-0.2291705078,-0.05324226066,0.7594600191,1
186.7585232,0.8118443781,-0.6180354917,0.05822072625,1.021982787,1
186.7685532,0.8826553291,-0.8925301069,0.2714238037,1.284274621,1
186.7785822,0.8811566877,-1.103865438,0.4865237179,1.493874607,1
186.7886122,0.8912548292,-1.296189131,0.6504922163,1.702228409,1
186.7986412,0.8386108848,-1.48946709,0.7890453534,1.882650525,1
186.8086712,0.8982150623,-1.625753408,0.8620596814,2.047684384,1
186.8187012,0.985457274,-1.683963609,0.79770201,2.107887087,1
186.8287302,1.084112374,-1.589694799,0.5127027257,1.991304416,1
186.8387602,1.037116547,-1.407183902,0.165375777,1.755883372,1
186.8487902,0.957906948,-1.195563228,-0.07663010001,1.533893518,1
186.8588192,0.873739787,-0.9824228615,-0.3022916937,1.349057509,1
186.8688492,0.7745449895,-0.7119786125,-0.4373122354,1.139331153,1
186.8788782,0.661040301,-0.4340785789,-0.5152065034,0.943841212,1
186.8889082,0.5410107046,-0.2022809172,-0.585322659,0.8223215716,1
186.8989382,0.4131762448,-0.04222274423,-0.6653394663,0.7843302715,1
186.9089672,0.1023329982,-0.02669897139,-0.6916076441,0.6996470617,1
186.9189972,-0.07737357348,0.02608501375,-0.6205766916,0.6259253374,1
186.9290272,-0.1974777219,0.1374668705,-0.5269453736,0.5792806037,1
186.9390562,-0.3599896789,0.2633544999,-0.37982475,0.5858455447,1
186.9490862,-0.5906050336,0.3606334573,-0.2619200318,0.7399141162,1
186.9591152,-0.8468285617,0.4324144614,-0.1154955192,0.957830932,1
186.9691452,-1.082468137,0.558805536,0.01076823235,1.218243345,1
186.9791752,-1.208256363,0.6702411872,0.1456063409,1.389355208,1
186.9892042,-1.271573523,0.8198217344,0.2425926451,1.532272199,1
186.9992342,-1.290906172,1.001259082,0.2976479812,1.660588093,1
187.0092642,-1.252235026,1.141878771,0.3396707506,1.728396919,1
187.0192932,-1.117151481,1.189465166,0.4356327689,1.688973275,1
187.0293232,-1.076857148,1.189775653,0.4192231429,1.658594425,1
187.0393522,-0.8545047864,1.139614729,0.4852898093,1.504794458,1
187.0493822,-0.64356502,1.045690904,0.6167479348,1.374053644,1
187.0594122,-0.5587318611,0.845283435,0.7172687347,1.24143458,1
187.0694412,-0.5727388662,0.5298729283,0.8220683809,1.133398232,1
187.0794712,-0.5833866459,0.2059389353,0.9335468629,1.119937752,1
187.0895012,-0.6144362381,-0.119525274,1.044407587,1.217622843,1
187.0995302,-0.6571220818,-0.4996130025,1.102722892,1.377468823,1
187.1095602,-0.7623751795,-0.942359494,1.172827645,1.68664816,1
187.1195902,-0.8307355624,-1.237383099,1.240441339,1.939054724,1
187.1296192,-0.7443733567,-1.339310592,1.337583617,2.033955381,1
187.1396492,-0.6204071224,-1.277256432,1.424455408,2.011308579,1
187.1496782,-0.6313069171,-1.118335542,1.484190709,1.962662699,1
187.1597082,-0.6285955632,-0.9252230591,1.506018365,1.875969458,1
187.1697382,-0.7128480935,-0.7693854064,1.466018148,1.802585786,1
187.1797672,-0.7883403254,-0.5794076157,1.419469049,1.723973907,1
187.1897972,-0.8107918793,-0.3631594545,1.328223102,1.597950209,1
187.1998272,-0.8191686004,-0.1494390446,1.216549762,1.474232867,1
187.2098562,-0.8168332225,0.04471716642,1.073035116,1.349303709,1
187.2198862,-0.7976224878,0.1974107713,0.947685138,1.254304495,1
187.2299152,-0.7501308176,0.2582329237,0.8406961481,1.155919764,1
187.2399452,-0.650751248,0.2839045393,0.7787215094,1.053796073,1
187.2499752,-0.6201837587,0.2837536812,0.7025603561,0.9791501929,1
187.2600042,-0.6149449459,0.2678825837,0.6896510196,0.9620482805,1
187.2700342,-0.5418956807,0.2538931203,0.6881995945,0.9119930521,1
187.2800642,-0.4686379623,0.1858607662,0.6672865891,0.8363235954,1
187.2900932,-0.3979161814,0.06619106591,0.6602899571,0.7737579544,1
187.3001232,-0.3189355007,-0.04930547655,0.6490817218,0.7248847944,1
187.3101532,-0.2433245704,-0.1059404379,0.6530686457,0.7049318258,1
187.3201822,-0.2044116426,-0.1540647769,0.6180110796,0.6689228428,1
187.3302122,-0.1081115091,-0.1346461737,0.6009429109,0.6252600041,1
187.3402412,0.07878596842,-0.01737090826,0.6017125507,0.6070971676,1
187.3502712,0.1989342633,0.003837527633,0.5652047288,0.5992044336,1
187.3603012,0.1918038762,-0.04878741324,0.4892764409,0.5277881907,1
187.3703302,0.1930440706,-0.06191031933,0.4683692828,0.5103613288,1
187.3803602,0.3029030201,0.001603891253,0.4704142003,0.5595018605,1
187.3903902,0.4138559836,0.1565176839,0.4628022949,0.640281598,1
187.4004192,0.4863330987,0.1658533484,0.3842778432,0.641635938,1
187.4104492,0.5214213628,-0.04117960095,0.253066324,0.5810495344,1
187.4204782,0.5311856282,-0.3648750275,0.07389024094,0.648653779,1
187.4305082,0.6007329959,-0.5917692143,-0.1169301336,0.8513187367,1
187.4405382,0.8203178707,-0.6370330954,-0.2481077389,1.067843633,1
187.4505672,1.100457973,-0.6298123688,-0.3366591422,1.311872992,1
187.4605972,1.420019125,-0.5878433937,-0.4486755681,1.601038393,1
187.4706272,1.727046187,-0.5160717452,-0.5205694234,1.876169262,1
187.4806562,1.950196401,-0.3266318983,-0.5085931563,2.041720206,1
187.4906862,2.389758791,-0.02022610366,-0.4045279205,2.423839725,1
187.5007162,2.715440225,0.2275549221,-0.3065579684,2.742147816,1
187.5107452,2.932060269,0.2700793827,-0.3282626867,2.962714412,1
187.5207752,3.149362975,0.149471789,-0.6913138946,3.227807904,1
187.5308042,3.168630136,-0.01911103964,-1.207563468,3.390986833,1
187.5408342,3.090376849,-0.1732220095,-1.479109186,3.430480858,1
187.5508642,2.906657917,-0.3815197116,-1.690456942,3.384060019,1
187.5608932,2.332294841,-0.5992583281,-1.929458228,3.085695841,1
187.5709232,1.743699349,-0.7610642338,-2.182200762,2.895117675,1
187.5809532,1.45352601,-0.8527655321,-2.502484338,3.017014216,1
187.5909822,1.254184634,-0.5869768363,-2.578194087,2.926534751,1
187.6010122,0.9565946867,-0.0814505446,-2.529321889,2.705397716,1
187.6110412,0.7032145134,0.5865517437,-2.46703267,2.631502193,1
187.6210712,0.612127465,1.372183054,-2.345324045,2.785342213,1
187.6311012,0.4576856889,2.117332921,-2.374433824,3.21411121,1
187.6411302,0.3316445701,2.758919828,-2.410835665,3.678825266,1
187.6511602,0.176646139,3.441002796,-2.393113339,4.195079922,1
187.6611902,0.1240774776,4.116470225,-2.401083094,4.767171316,1
187.6712192,0.06342664853,4.708010228,-2.378495885,5.275094873,1
187.6812492,-0.02435262993,5.422133015,-2.326920519,5.900396477,1
187.6912792,-0.0844891233,6.230222896,-2.189533755,6.604307216,1
187.7013082,-0.228706385,6.889498799,-1.991870384,7.175308213,1
187.7113382,-0.3513771322,7.418742567,-1.854233944,7.655023886,1
187.7213672,-0.4278793975,7.930975031,-1.746455142,8.132253764,1
187.7313972,-0.5076942931,8.347792044,-1.755589516,8.545494723,1
187.7414272,-0.6917383294,8.683457306,-1.752231022,8.885451382,1
187.7514562,-0.9118567626,8.98580104,-1.763853678,9.202569363,1
187.7614862,-1.00444121,9.213124412,-1.976414439,9.476116167,1
187.7715162,-1.010766216,9.366312692,-2.255144485,9.686853897,1
187.7815452,-0.9525916097,9.451131817,-2.50951503,9.824916747,1
187.7915752,-0.904091441,9.414857445,-2.767604113,9.854773187,1
187.8016042,-0.866094114,9.217363059,-2.980255944,9.725832934,1
187.8116342,-0.8034946273,8.801758758,-3.089597999,9.36280816,1
187.8216642,-0.8606476519,8.329563349,-3.165991287,8.952420947,1
187.8316932,-1.038522218,7.751918085,-3.159962223,8.43540892,1
187.8417232,-1.475197984,6.977734453,-3.094286297,7.774290635,1
187.8517532,-2.146833001,5.805751292,-3.058980809,6.904563968,1
187.8617822,-2.782128889,4.444731157,-2.989395434,6.035922571,1
187.8718122,-3.156404192,3.411190767,-2.714670146,5.382243387,1
187.8818422,-3.133364993,2.809895854,-2.235239101,4.765478437,1
187.8918712,-2.779875079,1.954334183,-1.043076322,3.554593615,1
187.9019012,-1.07476253,0.8852076387,1.347378873,1.937559518,1
187.9119302,1.834543884,-0.621865418,4.611049067,5.001403939,1
187.9219602,4.492536823,-1.890363305,5.166300373,7.102606569,1
187.9319902,2.357645591,-1.319537063,1.48181864,3.081469986,1
187.9420192,-0.4151306766,-0.1851976919,-1.393093282,1.465380686,1
187.9520492,-0.4452458838,0.4735157096,-1.773510501,1.888862229,1
187.9620792,-0.2327188906,0.4506279534,-0.9497670391,1.076699152,1
187.9721082,0.8903666371,0.1528690213,0.8972751224,1.273273078,1
187.9821382,2.125312616,0.002735327482,2.938601549,3.626615538,1
187.9921672,2.580297038,0.04122228563,2.139934748,3.352454743,1
188.0021972,3.015418175,0.2205020106,1.390015892,3.327688701,1
188.0122272,3.188882552,0.0298716706,1.308427938,3.447005645,1
188.0222562,2.305396626,-0.3622823721,1.588388238,2.822955776,1
188.0322862,1.208158422,-0.8298181343,1.706270445,2.249356295,1
188.0423162,0.2246047094,-1.293087768,1.471429892,1.971707173,1
188.0523452,-0.6753133544,-1.889052359,0.8720221674,2.187461909,1
188.0623752,-0.9676219507,-2.935159001,-0.05432648063,3.091019567,1
188.0724052,-0.7218048584,-4.550591488,-1.47347174,4.837355074,1
188.0824342,-1.00237093,-10.50095612,-1.30625599,10.62925828,1
188.0924642,3.929439431,-25.16431585,3.957099684,25.77483122,1
188.1024932,15.29916491,-32.06633646,1.843469805,35.57685711,1
188.1125232,5.305762314,-13.84053019,1.088380256,14.86256913,1
188.1225532,-0.163439837,-1.846990998,4.741420926,5.0910864,1
188.1325822,-0.3920403144,-5.70878633,6.626795095,8.755475441,1
188.1426122,0.1974598513,-13.86371791,8.881834622,16.46598466,1
188.1526422,2.285100794,-18.56390865,10.1412015,21.27638028,1
188.1626708,0.6347738043,-14.45217935,10.05399729,17.61678993,1
188.1727008,-0.2069342958,-9.629528028,9.692874423,13.6646422,1
188.1827308,-2.475008564,-10.0358604,12.9132682,16.54075745,1
188.1927598,-1.826737267,-11.53853869,12.27722797,16.94712868,1
188.2027898,2.201993587,-11.66411934,8.398090378,14.54057694,1
188.2128188,2.073854633,-12.70760175,7.302069565,14.80216995,1
188.2228488,1.755592147,-12.73954626,5.94277202,14.16667505,1
188.2328788,0.9847316346,-12.06684047,4.258326015,12.83400467,1
188.2429078,-0.4249463975,-12.12213759,3.456179245,12.61237385,1
188.2529378,-1.439177674,-12.0720328,3.84134411,12.74994638,1
188.2629678,-2.077969904,-11.09568812,4.403258026,12.11696888,1
188.2729968,-2.675085958,-10.59079274,4.713254596,11.89687962,1
188.2830268,-2.221211338,-10.20797085,4.134365044,11.23518683,1
188.2930568,-0.9819863668,-9.459996196,2.701193484,9.88697484,1
188.3030858,-0.5308825962,-9.074341918,1.448803214,9.204593871,1
188.3131158,-0.3749988967,-8.510487896,0.08762622759,8.519196368,1
188.3231448,-0.7535344818,-7.551536928,-0.8467557639,7.636132497,1
188.3331748,-1.530066501,-6.19146755,-1.083509526,6.469108657,1
188.3432048,-2.284056189,-4.607959691,-1.461480124,5.346599792,1
188.3532338,-2.590998904,-3.509316401,-1.675944738,4.673046939,1
188.3632638,-2.49421813,-3.023087091,-1.725235012,4.282127448,1
188.3732938,-2.269257032,-2.558245141,-1.661236067,3.801822056,1
188.3833228,-1.95474305,-1.563227962,-1.912479668,3.149965163,1
188.3933528,-2.605564318,-0.9048577917,-2.15255611,3.498747039,1
188.4033828,-4.932283108,-0.9598561174,-1.358908267,5.205321518,1
188.4134118,-5.938126407,-1.819490374,0.8727402055,6.271647783,1
188.4234418,-4.10332393,-2.743999488,3.630103505,6.127352766,1
188.4334708,-0.3484694215,-4.004425294,4.93989209,6.368625184,1
188.4435008,2.375587479,-5.171361138,5.08323015,7.63057145,1
188.4535308,2.886206404,-5.526372498,3.628296715,7.213564822,1
188.4635598,3.675255119,-4.829691371,2.152129701,6.439338567,1
188.4735898,5.03770139,-3.94203024,1.319828839,6.531461236,1
188.4836198,6.139711506,-3.523612844,-0.4213293099,7.091503595,1
188.4936488,6.340410751,-4.047671885,-2.422079861,7.902589894,1
188.5036788,6.053335267,-4.476794949,-2.974777395,8.095298723,1
188.5137088,5.929032233,-4.606233008,-2.464311376,7.902128593,1
188.5237378,7.175807129,-2.487005589,-2.005452881,7.85488676,1
188.5337678,7.222567313,-0.07211780369,-0.7381203443,7.26054414,1
188.5437968,5.714233012,0.7202278644,0.05412358224,5.759697601,1
188.5538268,4.199749779,0.645045535,-0.1226348599,4.250767137,1
188.5638568,3.425161227,1.357948592,-0.3231931508,3.698676469,1
188.5738858,3.097158742,2.453249028,-0.3237585765,3.964295988,1
188.5839158,3.035853902,3.593805159,-0.2544562072,4.71132597,1
188.5939458,3.156367647,4.909056798,-0.2676644643,5.84235737,1
188.6039748,3.420022402,6.331055206,-0.3363546485,7.203606576,1
188.6140048,3.760684986,7.592464514,-0.6066825378,8.49448837,1
188.6240348,3.871181282,8.540924408,-0.9615664279,9.42645449,1
188.6340638,4.071790481,9.080635276,-0.8591664791,9.988772787,1
188.6440938,4.058807323,9.354065114,-0.6064755464,10.2147082,1
188.6541228,3.87908818,9.533976338,-0.3811788189,10.29996734,1
188.6641528,3.77348308,9.679035818,-0.06348786157,10.38878913,1
188.6741828,3.619283817,9.71517278,0.2301475775,10.36999351,1
188.6842118,3.538768534,9.731293554,0.3939502343,10.36224656,1
188.6942418,3.536538114,9.742928343,0.4838396267,10.37621585,1
188.7042718,3.67872895,9.768766605,0.5798696188,10.45457299,1
188.7143008,3.897814473,9.770410257,0.7314855087,10.54461689,1
188.7243308,4.08191815,9.65234094,0.7268662814,10.50514522,1
188.7343598,4.249613664,9.834705656,0.6512640488,10.73334973,1
188.7443898,4.389417374,9.706984924,0.7239085405,10.67785488,1
188.7544198,4.535292833,9.60626488,0.9676768414,10.66703354,1
188.7644488,4.582331052,9.521008383,1.148194203,10.62853275,1
188.7744788,4.73137424,9.450081657,1.359189956,10.65539032,1
188.7845088,4.877267826,9.451101412,1.510498356,10.74209778,1
188.7945378,4.932528691,9.53785655,1.692613395,10.87039498,1
188.8045678,4.991640533,9.528927852,1.909556937,10.92535349,1
188.8145978,5.139879144,9.502811848,2.071454644,11.00057794,1
188.8246268,5.358449235,9.445583979,2.232824786,11.08681836,1
188.8346568,5.521971298,9.35128067,2.375908345,11.11681419,1
188.8446858,5.653323736,9.366663525,2.456470259,11.21288103,1
188.8547158,5.692572001,9.433955621,2.50445485,11.29943312,1
188.8647458,5.657800364,9.546993409,2.335134541,11.340575,1
188.8747748,5.541251907,9.397112315,2.384535474,11.16679014,1
188.8848048,5.529442871,9.389707401,2.316425059,11.1403397,1
188.8948348,5.517910992,9.363956848,2.185908043,11.08644323,1
188.9048638,5.369498718,9.299994741,2.014265513,10.92605529,1
188.9148938,5.242551574,9.249030409,1.817699518,10.78577499,1
188.9249238,5.142183532,9.174549746,1.735099264,10.65950205,1
188.9349528,5.14267002,9.079050096,1.573297452,10.55232062,1
188.9449828,5.113773665,8.974121227,1.407829435,10.42437128,1
188.9550118,5.13037508,8.882545643,1.310045278,10.34101466,1
188.9650418,5.172858025,8.802800147,1.204549667,10.28098684,1
188.9750718,5.21664373,8.761912907,1.187176566,10.26615204,1
188.9851008,5.30061501,8.756776128,1.138632982,10.29922971,1
188.9951308,5.381063926,8.726669399,1.076296839,10.30868676,1
189.0051608,5.371518931,8.676242427,1.089261505,10.26240171,1
189.0151898,5.451816405,8.667442367,1.148768545,10.3037143,1
189.0252198,5.558773674,8.640821164,1.185263357,10.34256276,1
189.0352498,5.60696701,8.615641299,1.143856884,10.34290881,1
189.0452788,5.642087141,8.476979842,1.212442385,10.25486963,1
189.0553088,5.431198538,8.079552196,1.179887573,9.806590433,1
189.0653378,6.04888729,7.461229606,1.094929869,9.667360348,1
189.0753678,7.917393118,6.178967957,-0.4136741352,10.05166081,1
189.0853978,2.286080641,-13.3576601,3.11272403,13.90475814,1
189.0954268,-57.64400368,-116.1939235,13.19415909,130.3761667,1
189.1054568,-45.71893948,-120.2313744,8.939826722,128.9407823,1
189.1154868,16.79945403,-36.79395299,7.153070231,41.07533379,1
189.1255158,3.631933391,-8.616011428,4.724483881,10.47603651,1
189.1355458,-4.311764012,-4.60734164,-0.3271420678,6.318696686,1
189.1455758,-11.43767305,-7.046974257,-6.048399632,14.73306991,1
189.1556048,-21.87884723,-8.301983203,-14.23566046,27.39089101,1
189.1656347,-25.25986871,-5.290116919,-15.80246751,30.2615975,1
189.1756647,-24.94384541,-0.1610978079,-15.5026714,29.36927301,1
189.1856937,-14.47108808,2.107072227,-15.56081962,21.35395165,1
189.1957237,1.548774229,2.416297549,-12.33305367,12.6625988,1
189.2057527,7.999265832,3.635243792,-15.32569139,17.66578806,1
189.2157827,16.07607744,4.21660964,-30.42469558,34.6681722,1
189.2258127,15.45406233,0.9912562501,-28.75647326,32.66106835,1
189.2358417,5.124299823,1.023312441,-3.432897678,6.252231881,1
189.2458717,3.411492484,3.23801612,0.9429852922,4.797108569,1
189.2559017,2.562347547,3.982315802,1.623786989,5.006111094,1
189.2659307,0.9256782648,3.727436256,1.431873332,4.098892842,1
189.2759607,-0.1032475027,3.053367482,1.063974709,3.235081948,1
189.2859907,-0.1859151453,2.906666688,1.300883861,3.189917632,1
189.2960197,0.9858411437,3.533854827,1.81272573,4.092186123,1
189.3060497,2.625130564,4.691097742,1.285725539,5.52727769,1
189.3160787,3.884526675,5.973730103,-0.06943042338,7.12599603,1
189.3261087,4.353729478,6.894004664,-0.9820474702,8.212592642,1
189.3361387,3.991003303,7.340372336,-1.187927349,8.439214701,1
189.3461677,3.251596279,7.269068465,-0.6368476655,7.988604988,1
189.3561977,2.837009978,6.966037683,0.1412324774,7.522915208,1
189.3662277,2.616639237,6.465011993,0.2978798964,6.980824693,1
189.3762567,2.374931422,6.02230994,-0.217796577,6.477341401,1
189.3862867,2.444326762,5.829872811,-1.029937409,6.404913846,1
189.3963167,2.356594846,5.536073028,-1.600506885,6.226015269,1
189.4063457,2.143975467,4.860783355,-1.883253091,5.636531543,1
189.4163757,1.677893322,3.973357868,-2.103248148,4.798598912,1
189.4264047,1.097074189,2.894544241,-2.109172547,3.745739843,1
189.4364347,0.2877414823,1.672186732,-1.981772828,2.608913024,1
189.4464647,-0.4861410177,0.4954147017,-1.700342245,1.836554537,1
189.4564937,-1.212947877,-0.5248671269,-1.031189225,1.676329105,1
189.4665237,-2.070183898,-1.456734377,-0.1886323098,2.538369273,1
189.4765537,-2.943913744,-2.655500125,0.6854527187,4.023450568,1
189.4865827,-3.591996031,-4.343363827,1.613813978,5.862733183,1
189.4966127,-3.984029036,-6.223868726,2.02356931,7.661844558,1
189.5066427,-4.401614082,-7.813689825,2.007032068,9.190001791,1
189.5166717,-4.128700846,-7.856635285,1.417848054,8.987946472,1
189.5267017,-2.537825494,-6.153050174,0.2067085019,6.659077495,1
189.5367307,0.05939923257,-4.145895168,-2.176140708,4.682687625,1
189.5467607,1.922785824,-3.683440052,-3.448809414,5.399918732,1
189.5567907,2.07312914,-4.72540628,-1.743073697,5.446616826,1
189.5668197,2.012622445,-5.564460091,0.672661496,5.95536218,1
189.5768497,2.548226522,-5.181020738,2.601171305,6.332655561,1
189.5868797,2.354325542,-4.321313392,3.765709791,6.196544877,1
189.5969087,2.113572284,-3.38395736,4.521511531,6.03012618,1
189.6069387,2.264866066,-2.102971575,4.882829697,5.77876575,1
189.6169687,2.161214228,-0.4838670355,4.520060252,5.033479803,1
189.6269977,2.511149912,1.12037739,3.898393932,4.770596883,1
189.6370277,2.602426995,2.121782652,3.427705643,4.798307396,1
189.6470567,2.308864609,2.777090635,2.972440263,4.67744474,1
189.6570867,2.091777373,3.162229773,2.359336313,4.465612786,1
189.6671167,1.948226767,3.298874525,1.830201742,4.245915577,1
189.6771457,1.753665928,3.050659052,1.185641233,3.713167108,1
189.6871757,1.50311186,2.417526634,0.4635323198,2.884205697,1
189.6972057,1.182608721,1.661703844,-0.03234694317,2.039820918,1
189.7072347,0.6801867163,1.23946003,-0.3701509702,1.461481055,1
189.7172647,0.04214263737,1.094443234,-0.702541645,1.301209729,1
189.7272947,-0.5849580851,0.9180771768,-1.145820525,1.580489272,1
189.7373237,-1.017786822,0.7492294693,-1.638030953,2.068907976,1
189.7473537,-1.399452714,0.8154907018,-2.017834361,2.5874985,1
189.7573837,-1.853950354,1.082352362,-2.493817595,3.290553867,1
189.7674127,-2.390746094,1.298038605,-3.344848258,4.311447666,1
189.7774427,-2.703917117,1.469631581,-4.329335772,5.31169775,1
189.7874717,-2.831758301,1.690586166,-5.08312373,6.059297279,1
189.7975017,-3.028698371,2.082509828,-5.756846935,6.83016454,1
189.8075317,-3.147567295,2.325286807,-5.94856895,7.120365943,1
189.8175607,-3.229482109,2.150944471,-5.684318072,6.88241155,1
189.8275907,-2.947187308,1.388966902,-5.126297232,6.074048518,1
189.8376207,-2.363225881,0.328659128,-4.208721746,4.837994639,1
189.8476497,-2.011892712,-0.5425151932,-3.442133063,4.023719056,1
189.8576797,-1.814655603,-1.006749033,-2.823063784,3.503741957,1
189.8677097,-1.626659142,-1.144421725,-2.125114396,2.910641208,1
189.8777387,-1.486111958,-1.039985776,-1.466584597,2.332588593,1
189.8877687,-1.292133502,-0.6929225367,-0.8538477056,1.69670461,1
189.8977987,-0.9630715013,-0.1584566206,-0.3514819801,1.037378812,1
189.9078277,-0.5917627823,0.4653652757,0.01744005159,0.7530286753,1
189.9178577,-0.3704942018,0.9819246787,0.2253573923,1.073418829,1
189.9278867,-0.3676276043,1.331771777,0.3241076553,1.419088403,1
189.9379167,-0.4523400182,1.592164662,0.286643229,1.679810747,1
189.9479467,-0.4061192402,1.686739867,0.1552235489,1.741872144,1
189.9579757,-0.2846632156,1.588700772,-0.01715456128,1.61409342,1
189.9680057,-0.2228414816,1.339317609,-0.2210469711,1.375605956,1
189.9780357,-0.05280415803,1.061537443,-0.4108043218,1.139478044,1
189.9880647,0.1164049074,0.8296848178,-0.6216770645,1.0432686,1
189.9980947,0.2144200292,0.5056976151,-0.7627948634,0.9399798033,1
190.0081247,0.2550628558,0.1671508455,-0.8527906752,0.90567566,1
190.0181537,0.3573923457,-0.1534432179,-0.9841284943,1.058197998,1
190.0281837,0.4496733955,-0.516794461,-1.106384345,1.301295123,1
190.0382127,0.4750853947,-0.87865291,-1.247920951,1.598450427,1
190.0482427,0.4610918382,-1.314066993,-1.381608181,1.961687771,1
190.0582727,0.4860167643,-1.700035851,-1.440227687,2.280480208,1
190.0683017,0.6759851995,-1.833409671,-1.405462482,2.407004736,1
190.0783317,0.9626376379,-1.560097947,-1.402866318,2.308378377,1
190.0883617,1.346867534,-1.011179468,-1.157335886,2.04351717,1
190.0983907,1.633065644,-0.3272838628,-0.7324398474,1.819474169,1
190.1084207,1.848636405,0.332050513,-0.3017876637,1.902311724,1
190.1184507,1.89441718,1.005252146,0.02695215583,2.144778484,1
190.1284797,1.687986786,1.675671673,0.1555546657,2.383562921,1
190.1385097,1.198678916,2.188035699,0.1298830501,2.498239574,1
190.1485387,0.8093172115,2.556076993,0.1182517505,2.683748763,1
190.1585687,0.4374872133,2.666962422,0.03853665948,2.702881554,1
190.1685995,0.2095016438,2.599731136,0.007148805857,2.608168711,1
190.1786285,0.08785061449,2.515901359,0.08836429238,2.518985039,1
190.1886585,-0.0241098243,2.50810819,0.3452348149,2.531871848,1
190.1986885,-0.2230101737,2.55113902,0.6874243999,2.651527134,1
190.2087175,-0.3834925622,2.612769842,1.029632696,2.834391695,1
190.2187475,-0.4323200288,2.560618526,1.164902183,2.846166709,1
190.2287775,-0.338426317,2.275569686,1.115087999,2.556593635,1
190.2388065,-0.112395764,1.872097188,0.9154377437,2.086961177,1
190.2488365,0.09521752149,1.433709211,0.7252471143,1.609525351,1
190.2588665,0.4557454365,1.008705511,0.8444431901,1.392219456,1
190.2688955,1.01079823,0.4100576323,1.364181139,1.746668401,1
190.2789255,1.055500486,-0.3829388309,2.157014465,2.431755503,1
190.2889545,1.120189987,-0.7307306331,3.313982561,3.573691828,1
190.2989845,2.304381403,-0.1083126533,5.208057094,5.696118325,1
190.3090145,3.205391873,1.154483029,6.303706609,7.165478709,1
190.3190435,3.063593677,2.590943356,5.748547981,7.010306526,1
190.3290735,2.059667242,4.23666559,4.286687935,6.36924312,1
190.3391035,0.3794071126,5.984932784,2.478682078,6.489008786,1
190.3491325,0.002806736603,7.418888163,0.8491066369,7.467321577,1
190.3591625,-0.4263596696,8.323636027,-0.4323027796,8.345752511,1
190.3691925,-1.076354799,8.976029173,-1.209779709,9.120921352,1
190.3792215,-1.396052412,9.085348717,-1.821985965,9.370814079,1
190.3892515,-1.922159441,8.689477015,-2.360822968,9.207344502,1
190.3992805,-2.713879603,7.691466061,-2.737490367,8.603350869,1
190.4093105,-3.842025019,5.596088265,-3.081863887,7.454880625,1
190.4193405,-5.706859088,1.746184416,-3.467174056,6.902079151,1
190.4293695,-8.685682756,-5.411943657,-3.813478912,10.92121058,1
190.4393995,-10.7388419,-15.05773805,-3.768792443,18.8749039,1
190.4494295,-7.545030731,-22.35567832,-1.776126253,23.66132849,1
190.4594585,-0.54321759,-25.40399322,-0.3591548426,25.41233852,1
190.4694885,2.540954924,-24.97800952,1.461716205,25.14943391,1
190.4795185,-3.085461387,-25.22033685,2.801723785,25.56237702,1
190.4895475,-6.930695942,-25.31155342,1.881657824,26.31064269,1
190.4995775,-6.639755448,-24.00063106,0.01054538034,24.90214358,1
190.5096075,-5.244975829,-22.195067,-1.686736944,22.86866528,1
190.5196365,-4.625290546,-19.61035911,-2.648485805,20.3217611,1
190.5296665,-4.146526375,-16.97562713,-2.38737839,17.6370398,1
190.5396955,-3.926921327,-15.16434683,-1.291502003,15.71770032,1
190.5497255,-3.698986336,-13.46599498,0.2366876517,13.96680141,1
190.5597555,-2.929128475,-11.76679645,1.773504946,12.25490155,1
190.5697845,-2.133773537,-10.48345423,3.389792297,11.22258856,1
190.5798145,-1.519565341,-8.920734394,4.626092491,10.16313498,1
190.5898445,-1.101105844,-7.181063191,5.218332406,8.944892159,1
45.1635865,-1.912759311,-3.614297311,0.3865611809,4.107459407,1
45.1736155,0.424613691,-2.306414918,-1.51656835,2.79281688,1
45.1836445,4.144388341,-0.2261610921,-2.093205555,4.64850654,1
45.1936735,5.856125055,1.569398967,-0.7555584955,6.10967122,1
45.2037025,4.513223687,1.829526242,4.084778316,6.356238527,1
45.2137315,1.727277736,-0.7642850263,12.01238652,12.15997738,1
45.2237615,-2.58267627,-4.475855009,23.81846924,24.37258648,1
45.2337905,-8.497656766,-7.505870174,35.42729497,37.19733171,1
45.2438195,-13.56850251,-8.538849231,40.83871764,43.87273715,1
45.2538485,-15.76924129,-7.262941167,38.79813995,42.50546963,1
45.2638775,-14.34219089,-4.195774549,32.75441107,36.00214449,1
45.2739065,-10.37080879,-0.2010031544,25.68885787,27.70399783,1
45.2839365,-7.480741764,3.754644813,19.07777834,20.83315822,1
45.2939655,-5.732847623,6.660853372,13.2371256,15.8888012,1
45.3039945,-3.80850527,7.525432618,9.216859614,12.49349229,1
45.3140235,-0.9890056568,7.173975196,7.620629382,10.51275627,1
45.3240525,2.285784187,6.802799794,7.581800362,10.43966432,1
45.3340815,4.62599075,6.743090951,7.425768582,11.04586371,1
45.3441115,5.249393401,6.719037845,6.773537403,10.88955507,1
45.3541405,5.330321789,6.515130817,6.156287193,10.42876464,1
45.3641695,5.506598969,6.214214389,6.160208336,10.33862947,1
45.3741985,4.950004849,5.553736297,6.577015409,9.929937893,1
45.3842275,3.982566648,4.48297838,6.81466321,9.077310555,1
45.3942565,3.099963359,2.940233799,6.441003326,7.729247794,1
45.4042865,2.474482607,0.9992036395,5.406365998,6.029118127,1
45.4143155,2.211826557,-0.8329469794,4.568199794,5.1433867,1
45.4243445,2.544908227,-2.404380631,4.52691085,5.722807523,1
45.4343735,2.582027521,-4.018419727,4.354213336,6.463260555,1
45.4444025,2.063205246,-5.969030696,3.726428781,7.332967667,1
45.4544315,0.9634187528,-7.848829837,2.695332527,8.354467244,1
45.4644615,-0.2339231247,-8.974532871,1.511459638,9.103926104,1
45.4744905,-1.171908536,-8.94200481,0.3201970375,9.024153466,1
45.4845195,-1.973875286,-8.285561298,-1.303577088,8.616613191,1
45.4945485,-2.843344851,-7.468258544,-3.347639135,8.664074295,1
45.5045775,-3.63125336,-6.40452664,-5.7651301,9.350972544,1
45.5146065,-3.733643953,-5.233249823,-8.269928766,10.47467053,1
45.5246365,-3.84205367,-4.597425639,-10.48657548,12.07749826,1
45.5346655,-5.046504373,-4.176238709,-11.49504593,13.23042921,1
45.5446945,-5.971229834,-3.708867838,-11.3124023,13.31847334,1
45.5547235,-5.387101176,-3.421168456,-11.10781407,12.81049516,1
45.5647525,-5.109015786,-3.306192316,-10.20014494,11.87753791,1
45.5747815,-4.680281855,-2.463879559,-8.831992956,10.29465105,1
45.5848115,-4.616862077,-1.095541487,-6.749741575,8.250735598,1
45.5948405,-5.784915324,-0.9175537048,-3.965353029,7.073271856,1
45.6048695,-5.881981443,-1.540631689,-2.441058168,6.552100173,1
45.6148985,-4.441714579,-2.082072749,-2.438898207,5.478328193,1
45.6249275,-2.96363114,-2.277006055,-2.747786729,4.638771176,1
45.6349565,-2.268239763,-2.045905089,-3.853633788,4.917431507,1
45.6449865,-2.103389066,-1.689209731,-5.546121469,6.167425591,1
45.6550155,-2.147784489,-1.607797486,-7.626145645,8.084311249,1
45.6650445,-2.461146278,-1.800604744,-9.370364812,9.85409332,1
45.6750735,-2.772140967,-2.062878094,-10.48948856,11.04398487,1
45.6851025,-2.94532497,-2.259967853,-11.08566482,11.69078091,1
45.6951315,-3.173396786,-2.526415238,-11.42202824,12.120889,1
45.7051615,-3.213586453,-2.653421732,-11.24417231,11.99163024,1
45.7151905,-3.026859422,-2.484837149,-10.63910244,11.33696583,1
45.7252195,-2.818963716,-2.181729769,-9.687471596,10.32248067,1
45.7352485,-2.491061218,-2.038504268,-8.990118624,9.548985209,1
45.7452775,-1.982584567,-2.17904502,-8.682932226,9.169088875,1
45.7553065,-1.519992334,-2.358904204,-8.323373487,8.783698079,1
45.7653365,-1.369669921,-2.425441132,-7.863979388,8.342717315,1
45.7753655,-1.526658744,-2.419138126,-7.452296814,7.982458519,1
45.7853945,-1.763920337,-2.521296,-7.311048549,7.932198899,1
45.7954235,-1.925515304,-2.624368964,-7.357898195,8.045718582,1
45.8054525,-1.959311918,-2.7413162,-7.405372324,8.135923854,1
45.8154815,-1.886909647,-2.858676543,-7.282952678,8.048220878,1
45.8255115,-1.523624039,-2.794043175,-6.852211105,7.555190567,1
45.8355405,-1.06640642,-2.689810417,-6.442521847,7.062463486,1
45.8455695,-0.6345350187,-2.713441062,-6.160945085,6.761851922,1
45.8555985,-0.3047801225,-2.72386577,-6.072421748,6.662330039,1
45.8656275,-0.1275382984,-2.865571872,-6.205283352,6.836176537,1
45.8756565,-0.08429623827,-3.097519807,-6.414230095,7.123488086,1
45.8856865,-0.122516271,-3.374663796,-6.696611434,7.49986471,1
45.8957155,-0.270533419,-3.623271618,-7.038197002,7.92070089,1
45.9057445,-0.4370697221,-3.738512345,-7.288237976,8.202799357,1
45.9157735,-0.4892368991,-3.89266366,-7.466089227,8.434137268,1
45.9258025,-0.3435006038,-4.174048634,-7.53527816,8.620968137,1
45.9358315,-0.07958542898,-4.416902504,-7.389583672,8.609373288,1
45.9458615,-0.05056028903,-4.542689561,-7.172142679,8.48988901,1
45.9558905,-0.03873341829,-4.700291904,-6.905618404,8.35355073,1
45.9659195,-0.005882298946,-4.885375575,-6.698775489,8.290990421,1
45.9759485,-0.1513381471,-5.075966738,-6.591548079,8.320868202,1
45.9859775,-0.2795216858,-5.300560046,-6.567038305,8.443936361,1
45.9960065,-0.5006100259,-5.484445623,-6.677516182,8.655574883,1
46.0060365,-0.2497804812,-5.666754205,-6.861950812,8.902856983,1
46.0160655,0.1166075865,-5.625909065,-6.934411263,8.930314087,1
46.0260945,0.5217703684,-5.354117033,-7.015022732,8.840212523,1
46.036124,0.9003585785,-4.942183029,-7.158570707,8.745338943,1
46.046153,1.008118962,-4.295869818,-7.245625223,8.483506716,1
46.056182,0.9462361979,-3.399946572,-6.997505643,7.837096711,1
46.066212,0.5569083704,-1.999241969,-5.703437297,6.069292577,1
46.076241,-0.9603830977,-0.04515980065,-3.726950353,3.84896532,1
46.08627,-2.677739132,2.044257343,-2.330039424,4.096139483,1
46.096299,-3.28421117,3.429669723,-3.66817531,6.000348951,1
46.106328,-2.596238009,4.314258726,-6.685743214,8.369733717,1
46.116357,-0.3782581347,5.492275044,-8.150274269,9.835402129,1
46.126387,2.404121746,5.798724693,-6.822697284,9.27114921,1
46.136416,3.5946226,3.871283609,-2.599256927,5.88763832,1
46.146445,3.499310061,0.9333425027,4.280217991,5.606832009,1
46.156474,2.195204093,-1.120790496,12.64730643,12.88524165,1
46.166503,-0.6233446173,-1.897810611,19.86892766,19.96908937,1
46.176532,-2.762253618,-2.207122472,24.51204023,24.7657334,1
46.186562,-2.22251439,-2.826325068,26.87088889,27.11037353,1
46.196591,-0.9221448655,-2.387591375,26.82712832,26.94894725,1
46.20662,-0.04770180456,-0.948360199,25.21700628,25.23487801,1
46.216649,-0.1062622175,0.386762179,23.05174958,23.05523878,1
46.226678,-1.01287019,0.7768729122,20.79340286,20.83254762,1
46.236707,-1.770471849,0.08805541322,18.66388902,18.74788196,1
46.246737,-1.421626963,-0.4786216445,16.88372761,16.95023185,1
46.256766,-0.7801796588,-0.4407511291,15.80496778,15.83034896,1
46.266795,-1.271675118,0.5182568496,14.45770614,14.52277572,1
46.276824,-1.334269269,1.339716097,12.70956641,12.84944326,1
46.286853,-2.332424649,2.997275142,10.34086286,11.01622929,1
46.296882,-2.744106199,3.633019803,8.324164031,9.487921718,1
46.306912,-0.9555087125,3.590116151,7.265461902,8.160200214,1
46.316941,0.3944625235,4.038644077,6.572483817,7.724233954,1
46.32697,-0.3767257988,3.571012128,4.546863304,5.793791146,1
46.336999,-1.33001352,3.298626896,1.416879171,3.828501266,1
46.347028,-0.5695136882,3.04269339,0.860989641,3.213040938,1
46.357057,-0.9027834919,3.251735735,2.897632155,4.448041752,1
46.367087,-1.102071658,3.696835438,4.211235464,5.711012023,1
46.377116,-0.3541608819,3.160802468,4.072761703,5.167541975,1
46.387145,0.4720030349,2.019651237,3.364611847,3.952517029,1
46.397174,1.259155937,0.8579055271,2.732415569,3.128509295,1
46.407203,1.652401363,0.2205552202,1.750418385,2.417237967,1
46.417232,1.704154922,0.06459433749,0.5549528056,1.793401529,1
46.427262,1.345994545,0.1187806311,-0.6416892332,1.495852675,1
46.437291,0.6232567629,0.2572733957,-1.906846021,2.022547983,1
46.44732,0.2348376292,0.2517372519,-2.947083812,2.967123751,1
46.457349,0.1309368463,-0.01103574246,-3.552474115,3.554903457,1
46.467378,-0.1894875017,-0.4541576251,-3.869714801,3.900879042,1
46.477407,-0.5385994591,-0.8492636347,-3.845251805,3.974581681,1
46.487437,-0.8336650175,-1.047657908,-3.62130403,3.860884268,1
46.497466,-1.431420904,-1.114891824,-3.033279957,3.534506597,1
46.507495,-1.987545199,-1.014612953,-3.220698422,3.918248803,1
46.517524,-1.821274213,-1.163439502,-3.918159567,4.474662627,1
46.527553,-1.344090691,-1.419206362,-4.39840893,4.81318269,1
46.537582,-1.044092714,-1.476349447,-4.594550271,4.937573238,1
46.547612,-0.5811360526,-1.424265958,-4.754330117,4.996989843,1
46.557641,-0.3171689837,-1.470394935,-4.751498895,4.983914042,1
46.56767,-0.4944874795,-1.232869633,-4.360205562,4.558056378,1
46.577699,-0.7920994272,-1.307355559,-3.74537259,4.045295527,1
46.587728,-1.005081918,-1.37199799,-3.241492875,3.660579763,1
46.597757,-0.9757356933,-0.9557203817,-2.634187024,2.967221405,1
46.607787,-0.9651099868,-0.5569604471,-2.079713105,2.359417052,1
46.617816,-0.8561900271,-0.640174512,-1.945071024,2.219501308,1
46.627845,-0.7336138952,-1.295894724,-2.244016356,2.693165775,1
46.637874,-0.9135718241,-1.300316388,-2.257625751,2.760853169,1
46.647903,-1.156602937,-0.9745773599,-2.073736666,2.566693426,1
46.657932,-1.362923842,-0.78360028,-1.940822437,2.497675426,1
46.667962,-1.4263157,-0.6463114572,-2.001110739,2.54097209,1
46.677991,-1.21931301,-0.4882685271,-2.239440325,2.596194011,1
46.68802,-1.12996273,-0.3742475295,-2.603027211,2.862276655,1
46.698049,-1.324283394,-0.4706312782,-3.339922564,3.623576002,1
46.708078,-1.689988434,-0.4731157601,-3.476807052,3.894622794,1
46.718107,-1.892324754,-0.5319238392,-3.424749291,3.948764826,1
46.728136,-1.767941321,-0.7279216307,-3.249308263,3.770078328,1
46.738166,-1.58061802,-0.8308004665,-2.8148502,3.333461322,1
46.748195,-1.200139039,-0.8401264831,-2.127386624,2.583006014,1
46.758224,-0.4884788076,-0.8159277812,-1.671293862,1.922907399,1
46.768253,0.1397432647,-0.7101031181,-1.988647399,2.116245046,1
46.778282,0.447925882,-0.4331684598,-2.34566143,2.427014638,1
46.788311,0.9231871317,-0.4777207348,-2.566552865,2.769058538,1
46.798341,1.067221887,-0.8364199331,-2.6908214,3.013151285,1
46.80837,1.068814815,-0.710421499,-2.238854434,2.580607098,1
46.818399,1.015742562,-0.502397739,-1.846996846,2.166918039,1
46.828428,0.7790263686,-0.463465223,-1.87984241,2.086980973,1
46.838457,0.340483002,-0.2641938677,-2.011825762,2.057466882,1
46.848486,-0.2611968043,-0.02944131553,-2.410811691,2.425098673,1
46.858516,-0.7913682329,0.1958027869,-3.056134384,3.162998543,1
46.868545,-0.9686599045,0.3699273142,-3.761375835,3.901678664,1
46.878574,-0.9999003352,0.3903928614,-4.40391233,4.532841391,1
46.888603,-0.8013979619,0.2555777031,-5.096347793,5.165299554,1
46.898632,-0.1495113308,-0.5754931971,-5.584411376,5.615976894,1
46.908661,0.2738992225,-0.8648312616,-5.756355184,5.827398982,1
46.918691,0.5731961916,-0.9175576517,-5.790713423,5.890910614,1
46.92872,0.5746408924,-0.7108259802,-5.659480854,5.732818614,1
46.938749,-0.07632999167,0.001140791774,-3.331965088,3.332839468,1
46.948778,-0.8889230327,0.7298896573,-2.701445791,2.936108382,1
46.958807,-0.4799752384,0.5711088087,-4.23988799,4.305019358,1
46.968836,-0.2444333486,0.05698901027,-3.960348397,3.968293694,1
46.978866,-0.3160271687,0.2466501743,-3.313165705,3.33733074,1
46.988895,0.05671236388,0.06533591062,-2.454300358,2.455824774,1
46.998924,-0.002628323436,-0.8051943398,-1.681960353,1.864761503,1
47.008953,-0.6733394075,-1.565852046,-1.29037349,2.137835899,1
47.018982,-1.10054495,-2.062144268,-1.359926121,2.704262788,1
47.029011,-0.9746951082,-2.115986161,-1.864211048,2.983741078,1
47.03904067,-0.2896752296,-1.755030668,-2.567338146,3.123342687,1
47.04906967,0.4467437942,-1.404595778,-3.183906571,3.508522534,1
47.05909867,0.5549657426,-1.018858763,-3.740867895,3.916650708,1
47.06912767,0.4271235352,-0.3657661432,-4.320416429,4.356858674,1
47.07915667,0.0319620502,0.2817401925,-4.563019161,4.571820531,1
47.08918567,-0.5104719398,0.4698246548,-4.566032816,4.618438316,1
47.09921567,-0.8225064835,0.2785978988,-4.204009475,4.29276477,1
47.10924467,-0.7833921922,-0.09787464246,-3.401458662,3.49187683,1
47.11927367,-0.5420313361,-0.5963130856,-2.660028208,2.779413128,1
47.12930267,-0.3131016605,-0.8559141116,-1.924894037,2.129750847,1
47.13933167,-0.05622499846,-0.7895232171,-1.081271212,1.340020744,1
47.14936067,0.2973696537,-0.6529256813,0.04231103718,0.718700828,1
47.15939067,0.5367449415,-0.5587355156,1.168594115,1.402102961,1
47.16941967,0.7671264808,-0.5934311391,2.132221686,2.342437379,1
47.17944867,0.8124904224,-0.7738050243,2.822640445,3.037468351,1
47.18947767,0.7727335221,-0.81658647,3.011780915,3.214771351,1
47.19950667,0.8135325424,-0.5820240985,2.96169425,3.126055035,1
47.20953567,0.9014266455,-0.3869865659,2.677766907,2.851800169,1
47.21956567,0.9457563608,-0.4706046733,2.225174289,2.463193957,1
47.22959467,0.9379365139,-0.624713012,1.80831576,2.130726904,1
47.23962367,0.9224436582,-0.7890598252,1.651648972,2.049746823,1
47.24965267,0.928465194,-0.9732172975,1.811428233,2.256207386,1
47.25968167,0.9155619239,-1.066736203,2.191991925,2.604036935,1
47.26971067,0.7753343636,-0.9908814436,2.66017205,2.942703646,1
47.27974067,0.742405257,-0.8933770761,2.882172702,3.107443909,1
47.28976967,0.5865697239,-0.5135890174,2.922544218,3.024748324,1
47.29979867,0.105263842,0.138458266,2.988222483,2.993279936,1
47.30982767,-0.06188451849,0.6823905319,3.240176666,3.311832025,1
47.31985667,-0.06719821226,0.9965506116,3.727336854,3.858842928,1
47.32988567,0.05430828117,1.232980145,4.393234729,4.563299334,1
47.33991467,0.2483860299,1.302764618,5.509941237,5.667304801,1
47.34994467,0.1869038912,1.361197305,6.810870706,6.948075341,1
47.35997367,-0.2376087161,1.531301872,8.045045437,8.192929843,1
47.37000267,-0.4029353948,1.826288639,9.071551042,9.262328295,1
47.38003167,0.2353893871,2.297069021,9.181047172,9.466972136,1
47.39006067,1.017765626,3.008989162,8.57998147,9.149095292,1
47.40008967,1.509888783,3.648486858,8.363111165,9.248397096,1
47.41011967,1.683870931,3.949733947,8.958855901,9.934632284,1
47.42014867,1.756971652,3.826303318,10.65926831,11.46069577,1
47.43017767,2.032903074,3.30903377,13.41550661,13.96632439,1
47.44020667,2.305938078,2.621494473,16.47320863,16.83912665,1
47.45023567,2.664118043,2.071959405,18.84259865,19.14246756,1
47.46026467,2.653124401,1.661016065,19.47891604,19.72881683,1
47.47029467,3.81777106,1.335222073,17.98235277,18.43158173,1
47.48032367,3.138109716,1.067109694,17.04028096,17.35965526,1
47.49035267,1.41838249,1.713588527,14.21740078,14.39036759,1
47.50038167,-0.09597020432,2.566859259,10.46297027,10.77365878,1
47.51041067,-0.9209684788,3.275766329,7.110890172,7.883120386,1
47.52043967,0.8074500494,3.397069449,4.612619337,5.785180513,1
47.53046967,0.9657555194,3.757530121,3.6734571,5.342846002,1
47.54049867,-0.692020019,4.634104054,5.21062753,7.007456839,1
47.55052767,-1.084302335,4.156344143,8.275877724,9.324219017,1
47.56055667,-0.1099025112,2.143578441,10.88174317,11.09140846,1
47.57058567,0.7825876153,0.1986265536,12.13555929,12.16238854,1
47.58061467,1.350767188,-0.9623458618,11.40948947,11.52940291,1
47.59064467,1.591845258,-1.259679701,9.423195575,9.639366116,1
47.60067367,1.920445622,-0.5751628295,6.947714263,7.231158769,1
47.61070267,2.238112277,0.5013914332,4.399171992,4.961174674,1
47.62073167,2.443625388,1.357327618,2.923219571,4.044608258,1
47.63076067,2.236704706,1.743842021,2.886962741,4.047021967,1
47.64078967,1.279359383,1.511862219,3.02559847,3.616176696,1
47.65081967,0.5403395174,0.505905776,3.08222583,3.16986175,1
47.66084867,0.2324798857,-0.9370163083,2.967829149,3.120906329,1
47.67087767,0.4943958244,-2.211246806,2.785931041,3.59102373,1
47.68090667,1.135370893,-2.935846049,3.035976108,4.373260799,1
47.69093567,1.53818229,-3.165729917,3.425082582,4.911114065,1
47.70096467,1.359777017,-3.049885173,3.666058034,4.95890861,1
47.71099467,1.077294959,-2.210401298,2.582270765,3.565748257,1
47.72102367,0.8768673165,-1.244185457,0.05809325695,1.523242781,1
47.73105267,0.1758056383,-0.2628759053,-2.872047079,2.889405784,1
47.74108167,-0.2787877871,0.7049166378,-5.092465242,5.148575758,1
47.75111067,-0.6809632266,0.6222039717,-5.568706339,5.644584926,1
47.76113967,-2.143704741,-0.1571895289,-5.901973658,6.281199855,1
47.77116967,-2.438621926,-1.379261401,-5.640341163,6.297831956,1
47.78119867,-1.848156348,-2.965387352,-5.127653786,6.205000998,1
47.79122767,-1.529365859,-4.137305608,-4.369252374,6.20859275,1
47.80125667,-1.462985928,-4.29175367,-3.513460908,5.736190804,1
47.81128567,-1.49037911,-3.675898605,-3.229852238,5.115213185,1
47.82131467,-1.425607748,-2.620645165,-3.561293471,4.645745335,1
47.83134367,-1.040589209,-1.616309278,-3.828872584,4.284337387,1
47.84137367,-0.774327473,-1.050109353,-3.746999871,3.96765935,1
47.85140267,-1.133582742,-0.776999943,-3.364873803,3.634709679,1
47.86143167,-1.694555987,-0.8561133555,-3.746292357,4.199899582,1
47.87146067,-2.810462449,-1.30771107,-4.454205401,5.426670542,1
47.88148967,-3.860002576,-1.874253349,-4.955500063,6.555106892,1
47.89151867,-4.664768899,-2.509386392,-5.150308238,7.388014882,1
47.90154867,-4.861001164,-3.055400851,-5.32699063,7.832090133,1
47.91157767,-4.294801531,-3.354097092,-5.929530416,8.05323652,1
47.92160667,-3.183193796,-3.336900431,-7.011317936,8.392032318,1
47.93163567,-2.166559606,-3.137937808,-7.94892189,8.816234651,1
47.94166467,-2.305369436,-2.625148982,-8.403987295,9.101271223,1
47.95169367,-2.059867216,-2.67391593,-8.700056382,9.33187336,1
47.96172367,-2.27225987,-2.747381225,-8.455352746,9.176287842,1
47.97175267,-3.055113168,-2.323015456,-7.403358543,8.339054802,1
47.98178167,-4.308378766,-1.696650898,-5.216485856,6.975132726,1
47.99181067,-3.943818904,-1.717495929,-4.545091013,6.257903173,1
48.00183967,-3.217242425,-1.876853313,-4.82928265,6.098786609,1
48.01186867,-2.754829701,-2.234364942,-5.566199053,6.600306453,1
48.02189867,-2.10087564,-2.509281142,-6.424338176,7.209874569,1
48.03193054,-1.482063492,-2.742434188,-7.486859706,8.109902942,1
48.04195954,-1.401061867,-3.28184451,-8.231869825,8.972020873,1
48.05198854,-1.506003016,-3.62873321,-8.296177502,9.179450471,1
48.06201754,-1.194270554,-3.524023026,-8.199015489,9.0038256,1
48.07204654,-0.8578961715,-3.312570459,-8.021658329,8.721015493,1
48.08207654,-0.1474030441,-2.929476677,-7.397571554,7.957865678,1
48.09210554,0.7173359777,-2.641044638,-6.226933252,6.801792809,1
48.10213454,0.5857954064,-2.479053376,-5.705344659,6.248185303,1
48.11216354,-0.1279307927,-2.555065425,-5.835794286,6.371908707,1
48.12219254,-0.5016519266,-2.895668953,-6.08337943,6.756038679,1
48.13222154,-0.3871662216,-3.170192804,-6.751395752,7.468692302,1
48.14225154,-0.1605790137,-3.357564783,-7.368730747,8.099211055,1
48.15228054,0.3299742398,-3.395678397,-7.405886294,8.153935649,1
48.16230954,0.8274926236,-3.15960642,-7.080930208,7.79791186,1
48.17233854,1.294129449,-2.789835227,-6.969417374,7.617790372,1
48.18236754,1.674240859,-2.423125927,-6.978348411,7.574428576,1
48.19239654,2.076875305,-2.29967074,-6.823518818,7.494151427,1
48.20242554,2.189968496,-2.384928991,-6.417950678,7.188458751,1
48.21245554,1.626297345,-2.477381072,-6.307312002,6.968819464,1
48.22248454,1.005710202,-2.611938953,-5.900074482,6.530280009,1
48.23251354,0.8076915394,-2.606449587,-5.449362329,6.094382238,1
48.24254254,1.325473157,-2.654487387,-4.851622522,5.686952037,1
48.25257154,1.900815203,-2.812744617,-4.199844503,5.400307822,1
48.26260054,1.605381124,-2.813929848,-3.365891803,4.671688921,1
48.27263054,1.311841689,-3.059276678,-2.584162924,4.214024256,1
48.28265954,1.920119932,-3.499345729,-2.721884149,4.831245637,1
48.29268854,2.593909648,-4.116707037,-3.240072586,5.845828808,1
48.30271754,2.087905785,-4.376428662,-3.646592068,6.067133764,1
48.31274654,0.5043191341,-3.147318789,-4.748492841,5.719102868,1
48.32277554,-0.4829526772,-0.7507965231,-6.186402107,6.250480761,1
48.33280554,-1.579051258,1.928838569,-6.688260441,7.137692122,1
48.34283454,-1.967770354,3.592424632,-5.961076144,7.232707909,1
48.35286354,-0.8964443792,3.219238957,-3.810404738,5.068164979,1
48.36289254,0.01196311086,2.090915201,-1.611505498,2.639890047,1
48.37292154,0.9407117486,0.7121002346,-0.763619467,1.405396751,1
48.38295054,1.797045398,-0.7137134814,-1.122775333,2.235930129,1
48.39298054,2.26316131,-1.765189036,-2.075705423,3.542081938,1
48.40300954,2.434700491,-2.230130389,-2.992268171,4.45588564,1
48.41303854,2.490213372,-2.137561364,-3.558776245,4.840993656,1
48.42306754,2.18123144,-1.529255054,-4.108376509,4.8964425,1
48.43309654,1.402425584,-0.5214348114,-4.82173331,5.048544731,1
48.44312554,0.3021222706,0.6496186423,-5.552748703,5.598776688,1
48.45315554,-0.8096170275,1.470553687,-5.615741342,5.8612762,1
48.46318454,-2.100014199,1.951654989,-4.881747962,5.661314335,1
48.47321354,-2.457993459,1.79171376,-3.282188326,4.474900027,1
48.48324254,-2.506623582,0.8474691242,-1.353427525,2.972058506,1
48.49327154,-2.383807057,-0.4199657393,0.1480830753,2.425043485,1
48.50330054,-2.401458485,-1.118588727,1.753182364,3.176773834,1
48.51332954,-1.989991235,-1.08742716,3.089494504,3.832432548,1
48.52335954,-1.05990417,-0.4810159332,4.931529402,5.06702629,1
48.53338854,0.04914146215,0.2167615467,7.27609214,7.279486059,1
48.54341754,0.5985980313,0.9801617432,8.436291407,8.514108841,1
48.55344654,-1.504606555,2.210833992,8.808766061,9.20575838,1
48.56347554,-4.318962519,3.817085767,9.073308715,10.74934938,1
48.57350454,-5.725041005,4.849197097,9.42657702,12.04786958,1
48.58353454,-5.603025402,5.21716998,9.844884489,12.47134744,1
48.59356354,-4.566278983,5.488642754,10.16097795,12.41859799,1
48.60359254,-3.210203839,6.068954934,9.906605358,12.05315114,1
48.61362154,-1.972001984,6.897828743,9.13919748,11.61868167,1
48.62365054,-1.11724986,7.695663777,8.262834924,11.34662634,1
48.63367954,-1.028587798,8.270014136,7.646304506,11.31004418,1
48.64370954,-0.6620141548,8.605413934,7.938643069,11.72661356,1
48.65373854,-0.5500692111,8.646710479,9.740330426,13.03618867,1
48.66376754,-0.0737428911,8.807241107,10.87764544,13.99628895,1
48.67379654,-1.080359192,8.900750949,11.59356917,14.65610418,1
48.68382554,-2.90884653,9.132106562,10.98509154,14.57837421,1
48.69385454,-4.268360422,9.210814177,9.315656508,13.77822393,1
48.70388354,-4.376162029,7.536565132,7.637197468,11.58781227,1
48.71391354,-3.205216749,4.864683448,6.164223619,8.481521814,1
48.72394254,-2.579962285,3.114691325,4.467829998,6.026525727,1
48.73397154,-1.869481144,2.143464128,2.55466723,3.823051513,1
48.74400054,-0.3875319649,1.900287784,1.331234418,2.352330709,1
48.75402954,0.9609602179,2.158196188,0.8288492507,2.503646621,1
48.76405854,1.261376563,2.309075401,1.281987998,2.926840151,1
48.77408854,1.125806968,2.058005902,2.427368082,3.375640003,1
48.78411754,0.6832857406,0.9569465429,4.078767963,4.244876227,1
48.79414654,0.311779532,-0.3325270611,4.299922523,4.324016007,1
48.80417554,-0.302366465,-1.44068494,3.433071048,3.735368174,1
48.81420454,-1.177573391,-2.688006551,2.840980822,4.084511028,1
48.82423354,-1.611191356,-3.658182419,1.14117769,4.156984811,1
48.83426354,-1.444175289,-4.113903882,-1.123917294,4.502558994,1
48.84429254,-0.4671372744,-3.998210288,-3.480635809,5.3215344,1
48.85432154,0.2184633788,-3.302316781,-5.450109018,6.376261497,1
48.86435054,0.08085646749,-2.105626795,-6.726285469,7.048625269,1
48.87437954,-0.3141415147,-0.9401153326,-6.657226928,6.730614542,1
48.88440854,-0.2594979689,-0.2858253497,-5.100770043,5.115358282,1
48.89443854,-0.09354068622,-0.2454415548,-2.70434718,2.717072889,1
48.90446754,-0.3209272085,-0.6977061439,-0.2946458745,0.8225596195,1
48.91449654,-0.3365419056,-1.589280816,1.283497165,2.070371691,1
48.92452554,-0.495313691,-2.451535794,1.084017064,2.725886351,1
48.93455454,-0.8888087927,-2.661215778,0.9907832104,2.975517074,1
48.94458354,-0.9795597723,-2.304366054,0.5298828685,2.559378071,1
48.95461254,-0.6977577455,-1.656111567,-0.3609948152,1.832999905,1
48.96464254,-0.2869662876,-0.9779579276,-1.235313769,1.601484145,1
48.97467154,0.1797046714,-0.393186661,-1.972051247,2.018879798,1
48.98470054,0.6569497351,-0.11426278,-2.56434671,2.649625066,1
48.99472954,1.153119897,-0.06918074727,-3.024876924,3.237954891,1
49.00475854,1.390326672,-0.2575552315,-3.180902272,3.481017411,1
49.01478754,1.051952249,-0.6721725225,-3.310594684,3.5381431,1
49.02481754,0.3615807062,-1.330688288,-3.224742941,3.507198164,1
49.03484317,-0.1649930768,-1.846141398,-2.698629772,3.273845357,1
49.04487217,-0.2084850322,-2.017666546,-1.716777599,2.657399033,1
49.05490117,0.2590144041,-2.080189653,-0.7569606578,2.228736613,1
49.06493017,0.627029825,-2.051807268,-0.4119720107,2.184673981,1
49.07495917,0.9966625126,-1.653882024,-0.8443239069,2.107497277,1
49.08498917,1.513327239,-1.164727936,-1.839227065,2.651321688,1
49.09501817,1.80144265,-0.7684633005,-3.119772556,3.683573301,1
49.10504717,1.597762202,-0.5367223567,-4.147517186,4.476920119,1
49.11507617,1.255640737,-0.547702843,-4.525625632,4.72841405,1
49.12510517,0.7638349369,-0.8997648668,-4.195868397,4.358707633,1
49.13513417,0.07128991105,-1.540608593,-2.998617663,3.371982351,1
49.14516417,-0.4713101399,-2.263944837,-1.622564337,2.824941504,1
49.15519317,-0.7120341611,-2.823792347,-0.8981802714,3.047543874,1
49.16522217,-0.3763841021,-2.98703199,-0.8777413291,3.135993454,1
49.17525117,0.1824326898,-2.886688507,-1.409909289,3.217778181,1
49.18528017,0.7896416232,-2.592953044,-2.285181924,3.545277959,1
49.19530917,0.6650228396,-1.594959632,-2.925789422,3.397998727,1
49.20533817,0.8306447844,-0.2812329465,-3.509763129,3.617664986,1
49.21536817,0.6205261132,0.5496330088,-3.762069315,3.852312894,1
49.22539717,0.05289215863,0.9128427494,-3.299374462,3.423733533,1
49.23542617,-0.2115156441,1.063927785,-2.206623997,2.458835225,1
49.24545517,-0.5926253928,0.9694104677,-0.6927208078,1.330722972,1
49.25548417,-1.067338539,0.5323480546,1.25383307,1.730521129,1
49.26551317,-1.299297803,0.5092106223,3.160371528,3.454767494,1
49.27554317,-1.204643442,1.824667206,4.61295906,5.104896426,1
49.28557217,-0.7721009995,3.891417034,6.385709715,7.517749334,1
49.29560117,-0.3060191475,5.708265928,7.49912541,9.429466026,1
49.30563017,-0.7269637106,6.189359629,7.706071236,9.910609605,1
49.31565917,-0.3960292849,6.864407812,7.991714737,10.54250626,1
49.32568817,0.03586623609,6.646925304,8.761964947,10.99795127,1
49.33571817,-0.9195940907,5.596377118,9.198399954,10.80627835,1
49.34574717,-1.934068757,4.947559544,8.66172379,10.16092645,1
49.35577617,-2.395117472,4.235728281,8.020327502,9.381025265,1
49.36580517,-2.575542374,3.531660951,7.640515178,8.802472367,1
49.37583417,-2.472636057,3.326039812,7.380065575,8.464150151,1
49.38586317,-1.903703435,3.769591465,7.18750273,8.336312259,1
49.39589217,-0.9290378556,4.081727531,6.753858014,7.945955516,1
49.40592217,-0.3317067698,3.634387175,5.964124297,6.992108277,1
49.41595117,0.1472880001,2.805156101,4.884133042,5.634301205,1
49.42598017,0.7173409478,2.174085996,3.665152885,4.321408754,1
49.43600917,2.083481343,1.8339979,2.421372932,3.683407347,1
49.44603817,3.430040436,1.478346271,1.210124549,3.926205104,1
49.45606717,3.768998558,0.902834655,0.6814643329,3.935079946,1
49.46609717,2.717968853,0.2837966582,1.572672969,3.152966143,1
49.47612617,1.089022573,-0.08233113527,3.540479722,3.705097197,1
49.48615517,-0.1902415732,-0.494569779,6.208354894,6.230927829,1
49.49618417,-0.9451777057,-1.194907755,8.306576191,8.445139043,1
49.50621317,-1.054719371,-1.718241449,8.858496045,9.085028278,1
49.51624217,-0.2759686983,-1.864678241,8.113169593,8.329267945,1
49.52627217,0.6657585655,-1.569706969,6.341034649,6.566272524,1
49.53630117,1.349907209,-0.9917097017,4.232030502,4.551463476,1
49.54633017,1.543000542,-0.264395012,3.135544251,3.504624537,1
49.55635917,1.200376802,0.1967737171,2.991255434,3.229122703,1
49.56638817,0.5775750983,-0.07472800076,3.51598632,3.563893527,1
49.57641717,-0.4983681303,-0.6723660654,4.056107664,4.141552402,1
49.58644617,-2.02996134,-1.217135068,3.636552984,4.338972046,1
49.59647617,-3.189331618,-1.676515134,2.178912288,4.210724156,1
49.60650517,-2.233904328,-2.076079645,0.09026989996,3.050997197,1
49.61653417,0.3112799605,-2.406568952,-2.459697922,3.455225492,1
49.62656317,1.573870479,-2.126578831,-4.693583978,5.387869372,1
49.63659217,1.801128655,-1.056194842,-4.945568567,5.368264191,1
49.64662117,1.925029839,-0.04060832798,-2.563071433,3.205733003,1
49.65665117,0.4795758736,0.6709481156,1.063816688,1.346057331,1
49.66668017,-1.769344945,0.4044747108,3.80623275,4.216822153,1
49.67670917,-3.223829313,-0.9122852173,5.449572244,6.397122587,1
49.68673817,-3.884591872,-2.3409629,5.953273619,7.484091668,1
49.69676717,-3.373458392,-3.440054963,4.690594296,6.724275019,1
49.70679617,-2.513619776,-4.322794199,1.203773303,5.143335905,1
49.71682617,-1.961254071,-4.567583497,-2.784375681,5.697550743,1
49.72685517,-0.4308831487,-3.759723412,-5.043782494,6.305626239,1
49.73688417,1.829803985,-2.490276814,-5.210038131,6.057570351,1
49.74691317,3.621176268,-1.086576975,-4.171460949,5.629800488,1
49.75694217,4.947088258,0.2862042493,-2.854410707,5.718676035,1
49.76697117,5.004176964,1.649515615,-1.764937021,5.556769883,1
49.77700017,2.702876312,2.584451777,-1.290393371,3.956013953,1
49.78703017,-0.9183641289,2.687081229,-1.125890729,3.054738637,1
49.79705917,-3.526941079,2.269080446,-0.686161986,4.249571475,1
49.80708817,-4.149142712,1.683161664,-0.2230244994,4.48309696,1
49.81711717,-3.759812874,1.196507845,-0.3538840163,3.961446424,1
49.82714617,-3.428567523,0.5454686219,-1.230214997,3.683210585,1
49.83717517,-2.752386149,-0.1500717133,-3.933265849,4.802991908,1
49.84720517,-2.282754891,-0.7235949835,-5.354201818,5.865324944,1
49.85723417,-1.224613218,-0.7429789419,-5.410055591,5.596462877,1
49.86726317,-0.6350713545,-0.1300692657,-4.783464453,4.827190261,1
49.87729217,-0.6056797403,0.4527789979,-4.281557003,4.347825565,1
49.88732117,-0.4950979288,0.5738153386,-4.193632421,4.26156531,1
49.89735017,-0.726726606,0.3204989,-4.328332974,4.400604213,1
49.90738017,-1.084961682,-0.04513685033,-4.604261327,4.730581524,1
49.91740917,-1.577639302,-0.4434968354,-4.950607113,5.214800667,1
49.92743817,-2.076480618,-0.7884850439,-5.050951765,5.517752636,1
49.93746717,-2.198317004,-1.121501517,-4.803116945,5.400027379,1
49.94749617,-1.977758714,-1.327829877,-4.669381768,5.241925963,1
49.95752517,-1.749040781,-1.439573384,-4.754959277,5.26698708,1
49.96755417,-1.566269976,-1.476371666,-5.330440487,5.748605981,1
49.97758417,-1.399426986,-1.38206134,-5.567869602,5.905053882,1
49.98761317,-1.067018331,-1.158535734,-5.758770669,5.970274096,1
49.99764217,-0.9336529899,-0.8841580635,-6.178893698,6.311273304,1
50.00767117,-1.101349381,-0.8180114365,-6.613235402,6.754035508,1
50.01770017,-1.544129201,-1.057652846,-7.157560893,7.398218871,1
50.02772917,-1.567554901,-1.107616134,-7.019763654,7.27743936,1
50.03775904,-1.330076085,-1.004336179,-6.649351314,6.855046787,1
50.04778804,-1.390206658,-1.145386808,-6.584642517,6.826573267,1
50.05781704,-1.508799593,-1.63753584,-6.790970292,7.146696954,1
50.06784604,-1.56942221,-2.224072381,-6.987270092,7.49876839,1
50.07787504,-1.558641552,-2.723071718,-7.197392126,7.85155631,1
50.08790404,-1.673395059,-3.128768789,-7.260330386,8.080955542,1
50.09793404,-1.415565301,-3.393292733,-6.848178281,7.772760543,1
50.10796304,-0.7450712219,-3.30689749,-6.144505638,7.017524611,1
50.11799204,-0.07030677482,-3.081996911,-5.663703128,6.448347162,1
50.12802104,0.3740604186,-3.106388572,-5.915214677,6.691736384,1
50.13805004,0.4790853287,-3.536080862,-6.93792427,7.801806444,1
50.14807904,0.4528510648,-4.123091612,-8.354435651,9.327462333,1
50.15810804,0.1026314986,-4.487706438,-9.520747012,10.52590452,1
50.16813804,0.05992146201,-4.605191619,-9.808101409,10.83560029,1
135.4372799,-4.42341484,7.791831763,-3.348954758,9.565288237,1
135.4473099,-4.357449185,7.469719178,-2.476065449,8.995274765,1
135.4573389,-4.138038265,7.28404143,-1.725741234,8.553291942,1
135.4673689,-3.866168464,7.363599815,-1.291105562,8.416460919,1
135.4773979,-3.509182208,7.442056001,-1.092109172,8.300075887,1
135.4874279,-3.052702653,7.356590758,-1.030467824,8.031206946,1
135.4974569,-2.654335067,7.170623572,-1.158687616,7.733427058,1
135.5074869,-2.392384776,6.695139105,-1.317663031,7.230811048,1
135.5175159,-2.442300994,5.733605422,-1.432527928,6.394622862,1
135.5275459,-2.689394095,4.187530852,-1.512162912,5.201431717,1
135.5375749,-3.176565684,2.146087773,-1.657894383,4.176706366,1
135.5476049,-3.949557946,-0.8011311096,-1.719891826,4.381648881,1
135.5576339,-5.138419095,-4.752874745,-1.741689807,7.212950334,1
135.5676639,-6.2273677,-9.020856267,-1.717343025,11.09527933,1
135.5776929,-6.134890476,-11.03328663,-1.467872154,12.70924639,1
135.5877229,-4.264638085,-9.263857779,-0.6369962579,10.21821722,1
135.5977519,-2.450544106,-5.834644724,0.3751503396,6.339478152,1
135.6077819,-1.526416377,-3.218724402,1.16987407,3.749498509,1
135.6178109,-1.002626673,-1.329737531,1.777338381,2.435650604,1
135.6278409,-0.3999803216,0.09702986598,1.741319532,1.789299518,1
135.6378699,-0.03489391722,0.4041016585,1.54169559,1.594158407,1
135.6478999,-0.1040910001,-0.3015321404,1.133585665,1.177613276,1
135.6579289,0.0002706164494,-0.864731859,0.8980552141,1.246701419,1
135.6679589,0.6621848935,-0.5988466841,1.038804638,1.369752263,1
135.6779889,1.346244367,-0.1363459593,1.351036599,1.91213598,1
135.6880179,1.755401674,0.1292591339,1.422511793,2.263113511,1
135.6980479,2.234752905,0.2725521702,1.62408052,2.775976003,1
135.7080769,2.62965397,0.2407947725,2.113152162,3.382081339,1
135.7181069,2.99997334,0.3969528526,1.985667658,3.619431952,1
135.7281359,3.255439653,0.5322504061,1.483267872,3.616802651,1
135.7381659,2.860164659,0.1917266929,0.7756821998,2.969677403,1
135.7481949,2.302461177,-0.2893646693,0.9661061331,2.513646842,1
135.7582249,1.982682654,-0.6791137522,1.56311628,2.614490103,1
135.7682539,2.157227889,-0.9765820777,1.243191723,2.674485068,1
135.7782839,1.965577063,-1.234226187,0.2372180307,2.333040905,1
135.7883129,1.668693459,-1.465026314,-0.6996427417,2.32816235,1
135.7983429,1.527114535,-1.444606667,-1.283399516,2.462941644,1
135.8083719,1.783440243,-1.044611508,-1.140733302,2.360750891,1
135.8184019,2.108279385,-0.6150645214,-0.7697333157,2.327151844,1
135.8284309,2.02300096,-0.5109279495,-0.378083303,2.120501648,1
135.8384609,1.324875571,-0.7654987621,-0.3172956491,1.562677242,1
135.8484899,0.8345770369,-0.7050490773,-0.1526555979,1.103139503,1
135.8585199,0.4085644362,-0.1506973654,-0.09942956328,0.4466775487,1
135.8685489,-0.03934876464,0.4904235184,-0.4162410629,0.6444533925,1
135.8785789,-0.4171874713,0.8243895793,-0.6157948387,1.110345373,1
135.8886079,-0.7757011302,0.9269281071,-0.7183327818,1.406026296,1
135.8986379,-1.042786008,0.8879651856,-0.850747658,1.612345002,1
135.9086669,-1.323440372,0.7995558697,-0.9104477298,1.794351993,1
135.9186969,-1.712814795,0.654226833,-0.9049150944,2.044656107,1
135.9287259,-2.147111621,0.4972986746,-0.6704569495,2.303672461,1
135.9387559,-2.452763709,0.3384520447,-0.3877955282,2.506189333,1
135.9487849,-2.789364526,0.09347066581,-0.1603996686,2.795535597,1
135.9588149,-3.131008565,-0.1741294974,-0.01136936266,3.135867501,1
135.9688449,-3.200894487,-0.4362742084,0.01592200477,3.230528472,1
135.9788739,-3.08770204,-0.8131997627,-0.05090706546,3.193397763,1
135.9889039,-2.716643874,-1.256586524,-0.2548567414,3.004016576,1
135.9989329,-2.019572007,-1.6103764,-0.2610419261,2.596175289,1
136.0089629,-1.289569644,-1.994032685,-0.2028048277,2.383335061,1
136.0189919,-0.7377138897,-2.176391553,-0.05465741476,2.298671227,1
136.0290219,-0.1304547799,-2.114724478,0.3691171825,2.150657007,1
136.0390509,0.1879394148,-1.929682907,0.7736731696,2.087478747,1
136.0490809,0.4073608234,-1.822892284,0.925506649,2.084572301,1
136.0591099,0.5597765758,-1.786651241,1.002454838,2.123767448,1
136.0691399,0.9483267237,-1.755754554,1.09611203,2.276721153,1
136.0791689,1.327675803,-1.603259169,0.8835142851,2.26136253,1
136.0891989,1.600904934,-1.191716344,0.7199624008,2.121657445,1
136.0992279,1.838940113,-0.5184445453,0.8145925695,2.077028296,1
136.1092579,1.95592331,0.04963818312,0.6988492745,2.077616484,1
136.1192876,1.884429843,0.326962266,0.3102245746,1.937580823,1
136.1293176,1.657825678,0.3590494466,-0.002176406756,1.696262722,1
136.1393466,1.575168122,0.3693914169,0.109178699,1.621580902,1
136.1493766,1.463171577,0.3779786378,0.2557268071,1.532688851,1
136.1594056,0.9384950691,0.3673624331,0.2345025837,1.034755823,1
136.1694356,0.3358646518,0.2138402778,0.1774022571,0.4358948148,1
136.1794646,0.1763003676,0.01232183754,-0.1229927095,0.2153157074,1
136.1894946,-0.006578958146,-0.1879669333,-0.6815679748,0.7070429655,1
136.1995236,0.1826347477,-0.1751621157,-1.079971887,1.109223375,1
136.2095536,0.6112063824,-0.006549466252,-1.234289922,1.377348085,1
136.2195826,0.9712782146,0.3054222929,-1.25192337,1.613684068,1
136.2296126,0.8190694901,0.5926112133,-1.46056138,1.776317096,1
136.2396416,0.3420204543,0.9890009791,-1.55235331,1.872138277,1
136.2496716,0.02744317576,1.639382683,-0.9747869825,1.907495313,1
136.2597006,-0.2908565864,2.448073073,-0.2309884071,2.476088643,1
136.2697306,-0.6525890279,3.187025476,0.1897269452,3.258680736,1
136.2797596,-0.8692912254,3.856286085,0.3344344229,3.967172291,1
136.2897896,-0.791730541,4.396594539,0.2848289841,4.4763834,1
136.2998196,-0.5708106007,4.649824001,0.01919699371,4.684768565,1
136.3098486,-0.8280057898,4.756378981,-0.08807138342,4.828715271,1
136.3198786,-1.444211688,5.194707901,-0.02244163195,5.391775329,1
136.3299076,-1.552481949,5.757651511,0.3406003118,5.97300257,1
136.3399376,-1.736941722,6.416027529,0.4779139853,6.664141173,1
136.3499666,-2.178977484,6.990353914,0.5188556045,7.340449704,1
136.3599966,-2.488130886,7.479067122,0.5357510976,7.90027022,1
136.3700256,-2.710034766,7.969510521,0.5277807945,8.434212408,1
136.3800556,-2.956751306,8.343411895,0.3520918812,8.858830003,1
136.3900846,-3.172216818,8.562554428,0.1805994415,9.133067066,1
136.4001146,-3.391882969,8.699319048,0.04615039207,9.337298958,1
136.4101436,-3.447046771,8.868175526,-0.05445921242,9.514706218,1
136.4201736,-3.437406759,8.970183127,-0.1631607056,9.607630924,1
136.4302026,-3.308196157,9.053443969,-0.2871865084,9.6432093,1
136.4402326,-3.190118946,9.106335543,-0.4661132077,9.660200176,1
136.4502616,-3.077707979,9.161021628,-0.7039363521,9.68979515,1
136.4602916,-2.931006016,9.123692418,-1.036081078,9.638777081,1
136.4703206,-2.937563961,8.986290452,-1.404194221,9.557952684,1
136.4803506,-2.948371954,8.846291152,-1.676089603,9.474124798,1
136.4903796,-3.037337048,8.674608715,-1.824599671,9.370347734,1
136.5004096,-3.12280346,8.541430777,-1.878811107,9.286434856,1
136.5104386,-3.335626615,8.394436453,-1.974793591,9.246230475,1
136.5204686,-3.515536085,8.18258189,-1.968134928,9.120701477,1
136.5304976,-3.517482915,7.847642852,-1.959640093,8.820338638,1
136.5405276,-3.528689689,6.926754919,-1.910090788,8.005000402,1
136.5505566,-3.501001076,4.121602911,-1.940810012,5.745551548,1
136.5605866,-3.179387551,-2.035295901,-2.271999961,4.406009354,1
136.5706156,-2.928063697,-10.86466463,-1.201722758,11.3162994,1
136.5806456,-3.173245635,-16.60139714,2.018116781,17.02200547,1
136.5906746,-1.840441386,-16.15494,5.519161711,17.17062774,1
136.6007046,-0.6136967115,-14.04959271,6.868303227,15.65059961,1
136.6107336,0.3473998927,-11.00053638,7.269183655,13.18990213,1
136.6207636,0.07343196541,-8.669331018,5.906889997,10.49066452,1
136.6307936,-1.061728794,-7.410202709,4.329140475,8.647533143,1
136.6408226,-1.579119524,-5.923865048,2.97445229,6.814188287,1
136.6508526,-2.467859466,-4.832564108,1.163419914,5.549554225,1
136.6608816,-3.499946238,-4.915677601,0.414854615,6.048604326,1
136.6709116,-3.457912359,-5.95916235,0.7711243683,6.932777697,1
136.6809406,-2.415157634,-6.922108721,1.081446628,7.410674892,1
136.6909706,-1.136647998,-8.059023206,1.222193202,8.230041308,1
136.7009996,1.245401093,-8.518948233,1.310836991,8.708719567,1
136.7110296,5.398558795,-7.742878289,1.371646718,9.538239669,1
136.7210586,6.828341601,-7.487364321,1.281762588,10.21419546,1
136.7310886,4.994429655,-7.337965622,0.4156426004,8.88610296,1
136.7411176,4.09857716,-7.500590138,-0.116599035,8.548144974,1
136.7511476,5.880970459,-8.145070247,0.429815374,10.05548229,1
136.7611766,8.371429414,-8.818597569,0.3408871177,12.16407405,1
136.7712066,9.328428581,-9.94032742,-0.00221521765,13.63193654,1
136.7812356,7.846006216,-10.37187532,0.4854130393,13.01427052,1
136.7912656,7.326016252,-9.708272481,2.351927891,12.38759999,1
136.8012946,5.898931351,-9.647692403,2.114299678,11.50415677,1
136.8113246,4.389805045,-9.571881498,-0.7551290175,10.55753397,1
136.8213536,2.925526882,-9.742583942,-2.96699709,10.59621259,1
136.8313836,2.493135518,-10.28012432,-2.560945385,10.88370902,1
136.8414126,2.560744826,-10.78110558,-1.754109147,11.21902627,1
136.8514426,2.306794403,-10.8870735,-1.147667807,11.18779742,1
136.8614716,1.880259609,-10.67804021,-0.6335952249,10.86081774,1
136.8715016,1.047653668,-10.34180894,0.145431363,10.3957559,1
136.8815306,0.4338073412,-9.930997603,0.6413733374,9.961137583,1
136.8915606,0.04351461343,-10.09547159,0.3047427003,10.10016378,1
136.9015896,-0.03316643044,-10.42861203,-0.004159416854,10.4286656,1
136.9116196,0.05103888363,-10.25587826,0.03132704258,10.2560531,1
136.9216496,0.1660630807,-9.81155419,0.2390831463,9.815871501,1
136.9316786,0.1679505619,-9.273833714,0.6223505907,9.296209948,1
136.9417086,-0.01575152189,-8.88176504,0.9595448993,8.933460962,1
136.9517376,-0.2536273278,-8.599213547,1.291314161,8.699327141,1
136.9617676,-0.6098592935,-8.577872379,1.531423202,8.734819971,1
136.9717966,-1.061932423,-9.195324318,1.911756659,9.451798946,1
136.9818266,-1.345432189,-9.921592941,2.223578584,10.25633931,1
136.9918556,-1.362831164,-10.43785531,2.496516085,10.81844373,1
137.0018856,-1.332044111,-10.48176205,2.541663607,10.86746203,1
137.0119146,-1.342551119,-9.880332649,2.71045635,10.33295652,1
137.0219446,-1.418401201,-8.780851454,2.8542043,9.341396919,1
137.0319736,-1.481437255,-7.374624156,2.704912605,7.993515496,1
137.0420036,-1.577891171,-6.131720701,2.464601982,6.794262449,1
137.0520326,-1.493856741,-5.097388598,2.319327909,5.796055592,1
137.0620626,-1.251303711,-4.046946246,2.313235695,4.826447376,1
137.0720916,-1.081305272,-2.968721434,2.127177293,3.808859577,1
137.0821216,-0.8300189862,-1.604908084,1.874316791,2.603406405,1
137.0921506,-0.4058065604,-0.0851354599,1.754892089,1.803211928,1
137.1021806,-0.03907431096,1.407837036,1.648470426,2.168175885,1
137.1122093,0.1305681793,2.851351444,1.510805919,3.229518173,1
137.1222393,0.4070343295,4.275740193,1.484735523,4.544454942,1
137.1322683,0.6685501724,5.707743187,1.445105435,5.925674758,1
137.1422983,0.9322379637,7.038367741,1.402664005,7.237068079,1
137.1523273,1.236628808,8.080433371,1.443952364,8.301063348,1
137.1623573,1.461880073,8.859756705,1.577861788,9.117128388,1
137.1723863,1.64161325,9.393749582,1.70793427,9.687851399,1
137.1824163,1.755503708,9.727249035,1.939775347,10.07292884,1
137.1924453,1.856309706,9.889971199,2.128168835,10.28525734,1
137.2024753,2.014539747,9.964263582,2.277375745,10.41783852,1
137.2125043,2.119375061,10.01457186,2.280761721,10.48738643,1
137.2225343,2.17344441,10.01075596,2.243229467,10.48671417,1
137.2325643,2.302265442,10.01651898,2.178083299,10.50595667,1
137.2425933,2.432872066,10.01250311,2.081319043,10.51194435,1
137.2526233,2.610691157,10.03081659,2.108476728,10.5772711,1
137.2626523,2.913157098,10.13854101,2.122507561,10.76018292,1
137.2726823,3.26689201,10.19789025,2.251760555,10.94257623,1
137.2827113,3.594879293,10.22580603,2.368220572,11.09498692,1
137.2927413,3.788667714,10.28863904,2.203385078,11.18324649,1
137.3027703,4.073256378,10.37188,2.214305338,11.36091812,1
137.3128003,4.040519571,10.47647032,2.134022044,11.42962286,1
137.3228293,3.66685881,10.75764655,2.049535625,11.54874058,1
137.3328593,3.456132174,10.90691076,1.860539582,11.59168493,1
137.3428883,3.335671346,10.85769358,1.568237271,11.46628018,1
137.3529183,3.156947691,11.005013,1.317237353,11.52439778,1
137.3629473,2.931979577,11.59666937,0.929866333,11.99766211,1
137.3729773,2.9778963,11.59837909,0.7384857953,11.99731742,1
137.3830063,3.026843635,11.46708922,0.6575989223,11.87806188,1
137.3930363,2.771924328,11.40980054,0.7586306226,11.76616477,1
137.4030653,2.466426898,11.42957232,0.8438455316,11.72307384,1
137.4130953,2.320258494,11.68351338,0.676274929,11.9308605,1
137.4231243,2.089296399,11.78479885,0.5415971804,11.98081679,1
137.4331543,1.928785944,11.7592781,0.5038873172,11.92705911,1
137.4431833,1.884997608,11.745688,0.4433160102,11.90424007,1
137.4532133,1.872240737,11.70391783,0.4135408187,11.85993229,1
137.4632423,1.870116882,11.66892575,0.4114486484,11.82499282,1
137.4732723,1.846666186,11.6389307,0.3936403684,11.79109141,1
137.4833013,1.823318838,11.54843802,0.4308438627,11.69942472,1
137.4933313,1.830978983,11.41480459,0.5007169569,11.57155846,1
137.5033603,1.878331051,11.11914013,0.550941031,11.29012581,1
137.5133903,1.694211439,10.66634578,0.5717758298,10.81518434,1
137.5234193,1.435447589,10.32745987,0.6562785479,10.44737473,1
137.5334493,1.267458252,10.16435764,0.8230235966,10.276088,1
137.5434783,1.196898366,10.09272925,0.9653612709,10.20919545,1
137.5535083,1.100295932,10.04219761,1.097646266,10.16175237,1
137.5635373,0.9391411865,9.918848258,1.253995038,10.0418146,1
137.5735673,0.7341146361,9.66815298,1.156999159,9.764771037,1
137.5835963,0.7786456418,9.306873406,1.301375027,9.429621338,1
137.5936263,1.089673003,8.947294786,0.9593667785,9.064317727,1
137.6036553,1.928156053,8.070480241,0.776917351,8.333908906,1
137.6136853,2.685712688,7.236841536,2.297729903,8.053849437,1
137.6237153,5.681582159,5.905374398,4.814386868,9.504322361,1
137.6337443,7.24937972,-5.032256463,5.340536875,10.31496222,1
137.6437743,-6.17639109,-65.48034854,1.177193907,65.78152961,1
137.6538033,-22.28949719,-109.6263309,0.8804550219,111.8728265,1
137.6638333,4.176933943,-51.34281956,3.516724531,51.63234692,1
137.6738623,16.98122993,-16.44721191,6.918252482,24.63199478,1
137.6838923,7.515111698,-7.746155654,4.244007939,11.59704422,1
137.6939213,-2.52407489,-7.519382504,0.4393295248,7.94387045,1
137.7039513,-9.303652759,-12.76100203,-3.971737604,16.28422019,1
137.7139803,-13.12827266,-17.68945755,-10.42707655,24.37195883,1
137.7240103,-13.37361715,-18.41982624,-16.58782809,28.16557607,1
137.7340393,-7.018207126,-19.58450506,-15.3482593,25.8529908,1
137.7440693,-2.418711572,-21.93769595,-12.69399645,25.46075834,1
137.7540983,-0.8317287851,-22.16216354,-10.70854865,24.62775426,1
137.7641283,-0.2539238913,-20.77598986,-9.581587876,22.88040773,1
137.7741573,-0.6554453927,-20.73678077,-9.154489703,22.67704494,1
137.7841873,-1.392902809,-21.53177756,-9.022078335,23.38708021,1
137.7942163,-0.9461514864,-20.59296265,-8.810788028,22.41863732,1
137.8042463,0.05299528889,-17.26071631,-7.884613627,18.97636077,1
137.8142753,1.031971582,-13.24037314,-6.894119854,14.96333301,1
137.8243053,1.459498502,-9.542422056,-5.844673283,11.28486422,1
137.8343343,1.266448731,-6.697531786,-4.850695739,8.366007026,1
137.8443643,1.441911247,-3.805228783,-3.820843188,5.581909781,1
137.8543933,1.927616647,-0.9089531815,-2.544632238,3.31919494,1
137.8644233,2.395594751,1.821686003,-1.458172792,3.34420125,1
137.8744523,2.524209083,4.328288535,-0.6369793741,5.050886642,1
137.8844823,2.436436091,6.465948132,-0.09331918638,6.910384544,1
137.8945113,2.374825441,8.120506094,0.3082862592,8.466253925,1
137.9045413,2.521399496,9.196962124,0.589692868,9.554543704,1
137.9145713,2.627512719,9.827512411,0.8408506608,10.20739208,1
137.9246003,2.672742979,10.22056342,0.9932734665,10.61084651,1
137.9346303,2.608833497,10.37255477,1.211665875,10.76401593,1
137.9446593,2.166878133,10.49197012,1.77748807,10.8598463,1
137.9546893,2.064895237,10.53709191,2.000493858,10.92227421,1
137.9647183,2.20547385,10.48568319,2.010014294,10.90201011,1
137.9747483,2.389167345,10.50390779,2.187218843,10.99200281,1
137.9847773,2.755253624,10.48054349,2.198426785,11.05740904,1
137.9948073,3.271323322,10.48071072,2.05257033,11.16959706,1
138.0048363,3.739739968,10.42175909,1.840159112,11.22429967,1
138.0148663,4.056425752,10.34476295,1.732294355,11.24586832,1
138.0248953,4.48925712,10.39671196,1.56505814,11.4321676,1
138.0349253,4.784849951,10.38891411,1.349630928,11.5171971,1
138.0449543,4.794729699,10.46683878,1.104395268,11.56563167,1
138.0549843,4.672157148,10.54123642,0.8021099335,11.55811827,1
138.0650133,4.506443549,10.50748863,0.4292938024,11.44113822,1
138.0750433,4.280363002,10.57320665,-0.00642901361,11.40676324,1
138.0850723,4.128424857,10.58770424,-0.4466435145,11.37290039,1
138.0951023,3.896095684,10.60774265,-0.6143885833,11.31729822,1
138.1051313,3.725417213,10.49548312,-0.7266849446,11.16073342,1
138.1151607,3.487422964,10.44321019,-1.007428479,11.0561146,1
138.1251897,3.263550911,10.31032402,-1.246090772,10.88605935,1
138.1352197,2.929557368,10.27927999,-1.184509213,10.7540209,1
138.1452487,2.679396233,10.37047667,-1.444393244,10.80797032,1
138.1552787,2.567932808,10.55925169,-1.721601406,11.00254455,1
138.1653077,2.437308057,10.62846986,-1.988634535,11.08420089,1
138.1753377,2.358281329,10.78301528,-2.148443617,11.24503087,1
138.1853667,2.208955282,10.98774618,-2.231280536,11.42753964,1
138.1953967,2.117599116,11.10371985,-2.115009238,11.50000368,1
138.2054257,2.114583853,11.15294171,-1.928089394,11.51421306,1
138.2154557,2.099504176,11.14427614,-1.567648603,11.44815839,1
138.2254847,2.080897605,11.01527955,-1.319258151,11.28746918,1
138.2355147,2.144031746,10.82742605,-1.131486515,11.09550759,1
138.2455437,2.254454952,10.60242402,-0.9467373043,10.88072947,1
138.2555737,2.245222491,10.3928142,-0.8470125297,10.66625714,1
138.2656027,2.232826978,10.24167186,-0.7473426459,10.5088477,1
138.2756327,2.236633662,10.08351638,-0.6173682513,10.34702741,1
138.2856617,2.186780886,9.90532131,-0.4840880603,10.15537996,1
138.2956917,1.988639798,9.584444241,-0.3893726684,9.796319244,1
138.3057217,1.870207514,9.323830916,-0.3160618865,9.514798695,1
138.3157507,2.017221426,9.232164701,-0.4071574134,9.458743283,1
138.3257807,2.434615414,8.900440462,-0.543958286,9.243434603,1
138.3358097,4.370775281,7.425208418,-0.1239703274,8.617004425,1
138.3458397,8.211333818,2.341981777,0.2509449907,8.542473594,1
138.3558687,12.87470933,-42.772593,2.917852997,44.76345293,1
138.3658987,-9.242342364,-133.451087,15.90184211,134.7125907,1
138.3759277,-12.6990847,-89.1491197,19.34326064,92.10317056,1
138.3859577,10.00995139,-24.23622941,9.658046068,27.94408339,1
138.3959867,8.822383057,-11.35109684,5.336462535,15.33491684,1
138.4060167,-0.564089811,-12.86077073,2.28012379,13.07350701,1
138.4160457,-9.672654752,-20.60897467,-2.551783091,22.90855045,1
138.4260757,-9.595080911,-20.93066041,-7.68720461,24.27449768,1
138.4361047,-2.623395987,-13.75046903,-10.46065594,17.47520895,1
138.4461347,1.818347097,-9.155814098,-11.40787915,14.74025185,1
138.4561637,2.131974934,-6.24118701,-11.99027235,13.684457,1
138.4661937,2.223713508,-2.978621355,-14.5002154,14.96907925,1
138.4762227,4.028865193,-0.4643648171,-23.89949294,24.24114585,1
138.4862527,2.499445833,1.813744315,-22.73425278,22.94304138,1
138.4962817,0.4636513837,4.03912501,-10.32914387,11.10048272,1
138.5063117,-0.7590937221,4.971254216,-4.756462011,6.92195945,1
138.5163407,-2.046782171,5.06195681,-1.974331515,5.806092398,1
138.5263707,-2.866479652,5.567049238,-0.3625695435,6.272176615,1
138.5363997,-3.57982856,6.226785902,0.4166626471,7.194556481,1
138.5464297,-4.066952787,6.901585579,1.732238222,8.195891515,1
138.5564587,-4.555021924,7.935351672,3.430433954,9.771689106,1
138.5664887,-4.492620438,8.777131455,3.764630395,10.55434114,1
138.5765177,-4.434052387,9.515178709,4.361069781,11.3674261,1
138.5865477,-4.513183926,10.03074876,5.127117012,12.1355708,1
138.5965777,-3.692148895,9.107485106,5.343493227,11.18620437,1
138.6066067,-2.683135235,7.794645444,4.412193156,9.350035333,1
138.6166367,-2.248293595,7.4648426,3.645397482,8.606254815,1
138.6266657,-2.082815784,7.401450596,3.083839077,8.284301779,1
138.6366957,-2.165159198,7.337837568,2.57392328,8.071979657,1
138.6467247,-2.310957766,7.287994732,1.919611663,7.882912022,1
138.6567547,-2.351324166,6.969292243,1.255058062,7.461563539,1
138.6667837,-2.669069466,6.119376644,0.8720133235,6.73283815,1
138.6768137,-3.164121932,4.80345316,0.588832706,5.782002579,1
138.6868427,-3.816078876,3.041822155,0.4042945435,4.896794266,1
138.6968727,-4.730871672,0.5926193994,0.08232886948,4.768555607,1
138.7069017,-5.681018488,-2.966452714,-0.03360336363,6.408973549,1
138.7169317,-6.766933558,-7.747304631,-0.4050489074,10.29447344,1
138.7269607,-7.004398341,-11.68928809,-1.235807859,13.68313829,1
138.7369907,-5.108371423,-11.83356931,-2.218475134,13.07862581,1
138.7470197,-2.227986507,-8.336059606,-2.668019598,9.031729746,1
138.7570497,-1.429324092,-4.31007095,-2.064261253,4.988071118,1
138.7670787,-1.262627867,-1.793918161,-0.9690514487,2.398214379,1
138.7771087,-1.106918342,-0.1978224152,0.1216378731,1.131016223,1
138.7871377,-0.9002075011,1.089111743,0.8177897539,1.632580171,1
138.7971677,-0.6128445164,2.268918478,1.237889467,2.656301902,1
138.8071967,-0.03389163136,3.371438472,1.49757367,3.689237443,1
138.8172267,0.3944349685,4.249735286,1.604557836,4.559652925,1
138.8272557,0.6030560946,5.000440008,1.617225829,5.28994294,1
138.8372857,0.4464078717,5.532019739,1.363650797,5.715073567,1
138.8473147,0.06218535773,5.757359735,0.9702997562,5.838881722,1
138.8573447,-0.192631111,5.914489038,0.4484042573,5.934589599,1
138.8673737,-0.2536284607,5.938191311,-0.07692662694,5.944103057,1
138.8774037,-0.2068574598,5.781043298,-0.4571019906,5.802774668,1
138.8874327,-0.104855414,5.492455139,-0.6659604406,5.533675218,1
138.8974627,0.1418956248,5.182697135,-0.8557895659,5.254793977,1
138.9074917,0.4851270374,4.948102165,-0.956053673,5.062914369,1
138.9175217,0.8536150595,4.963176872,-1.006373641,5.135617902,1
138.9275507,1.28194239,5.31303508,-0.9123850586,5.541133869,1
138.9375807,1.950336734,5.796514446,-0.3703557689,6.127034886,1
138.9476097,2.719128941,6.090749846,0.4141547763,6.682994842,1
138.9576397,3.544002085,6.225417069,1.140215092,7.253678992,1
138.9676697,4.414813001,5.878992346,1.582171625,7.520398386,1
138.9776987,4.559404704,4.863380688,0.9996557754,6.740916455,1
138.9877287,4.002914958,4.399657311,-0.2699957675,5.954259847,1
138.9977577,3.529508007,4.538184866,-0.4824982023,5.769345991,1
139.0077877,2.93932982,5.203910834,-0.5808732203,6.004811525,1
139.0178167,2.390923995,5.71379447,-0.6517306566,6.228058899,1
139.0278467,1.790795017,5.666045523,-1.079253922,6.039520485,1
139.0378757,0.8582477354,5.123981735,-1.61077635,5.439336213,1
139.0479057,-0.3589985758,3.571337233,-1.480873438,3.882823167,1
139.0579347,-0.3445448434,2.033612487,-1.471767861,2.533849154,1
139.0679647,-0.5590071188,1.001854329,-1.76747559,2.10717133,1
139.0779937,-0.916771055,-0.03482777059,-1.276977519,1.572372006,1
139.0880237,-0.8260227066,-1.55656389,-0.9094116032,1.982986162,1
139.0980527,-0.1767581132,-3.22063878,-0.6023567677,3.28124843,1
139.1080827,0.7768052307,-5.015685453,0.4483548483,5.095247688,1
139.1181117,1.447766649,-5.677472152,2.094360965,6.22222357,1
139.1281417,1.038991311,-4.914746724,2.243768435,5.501702926,1
139.1381707,-0.3039594658,-3.549493205,1.446423105,3.844923038,1
139.1482007,-1.090704378,-2.654416051,0.8757398272,3.000413448,1
139.1582297,-1.606370181,-2.36894972,0.5668156368,2.917812177,1
139.1682597,-1.523065338,-2.389429008,0.1675198048,2.838514029,1
