"Time (s)","Linear Acceleration x (m/s^2)","Linear Acceleration y (m/s^2)","Linear Acceleration z (m/s^2)","Absolute acceleration (m/s^2)"
2.481391665E-2,6.250351936E-2,-1.439739445E-1,1.369462929E0,1.378428055E0
3.484291665E-2,-4.840515152E-2,-1.076218048E-1,1.091782751E0,1.098141652E0
4.487191665E-2,-1.635232329E-1,-1.558835533E-1,4.581252533E-1,5.108016030E-1
5.490091664E-2,3.404833674E-3,5.285298228E-3,-1.440403104E-1,1.441774541E-1
6.492991676E-2,2.639881919E-1,2.938684872E-1,-4.166334110E-1,5.741357439E-1
7.495891675E-2,1.630706584E-1,3.738779855E-1,-4.414659512E-1,6.010565479E-1
8.498791675E-2,-6.381007969E-2,2.778634885E-1,-4.710657263E-1,5.506203438E-1
9.501791676E-2,-2.190992635E-1,2.229075551E-1,-3.162291169E-1,4.446269445E-1
1.050469168E-1,-2.860039821E-1,2.218872160E-1,-5.525852680E-2,3.661771691E-1
1.150759168E-1,-2.650881994E-1,2.137835598E-1,2.558361501E-1,4.259428360E-1
1.251049167E-1,-1.913863850E-1,2.280262077E-1,4.956316334E-1,5.781655609E-1
1.351339167E-1,-2.192856435E-1,2.197871885E-1,6.580953509E-1,7.276552017E-1
1.451629167E-1,-2.556224343E-1,2.675206411E-1,6.421956021E-1,7.411648357E-1
1.551919167E-1,-2.512421389E-1,3.761195156E-1,5.080809402E-1,6.802460909E-1
1.652219167E-1,-1.274921785E-1,5.168380228E-1,2.881677443E-1,6.053234228E-1
1.752509167E-1,-1.653950728E-2,5.984873727E-1,8.427182615E-2,6.046175909E-1
1.852799167E-1,1.419707615E-1,5.624913284E-1,-7.208272040E-2,5.845922598E-1
1.953089167E-1,1.594515974E-1,3.634962541E-1,-2.936869311E-1,4.937675082E-1
2.053379167E-1,1.410528948E-1,2.894383442E-1,-3.944864970E-1,5.092053325E-1
2.153669167E-1,2.375524914E-1,3.598891068E-1,-3.529490465E-1,5.572471487E-1
2.253959167E-1,3.115442546E-1,4.535530230E-1,-2.544000739E-1,6.062091759E-1
2.354259167E-1,3.122105449E-1,5.006418201E-1,-2.500503302E-2,5.905445860E-1
2.454549167E-1,2.513638341E-1,4.625220671E-1,4.074556214E-1,6.656804962E-1
2.554839167E-1,1.636425161E-1,3.524631429E-1,6.955602157E-1,7.967516262E-1
2.655129167E-1,1.242894392E-1,1.652440685E-1,7.669827855E-1,7.943651931E-1
2.755419167E-1,1.428140762E-1,8.771115839E-3,7.640913373E-1,7.773727321E-1
2.855709167E-1,1.773507285E-1,-7.209616899E-2,6.730408341E-1,6.997393106E-1
2.956009167E-1,2.409364944E-1,-1.223293063E-1,4.096991980E-1,4.907833395E-1
3.056299167E-1,2.701121271E-1,-1.274912283E-1,2.587568343E-2,2.998068136E-1
3.156589167E-1,2.022022721E-1,-1.119092757E-1,-3.263769597E-1,3.999141966E-1
3.256879167E-1,2.488128401E-1,-3.381854117E-2,-5.649369264E-1,6.182275098E-1
3.357169167E-1,3.594013759E-1,5.074769229E-2,-5.829434270E-1,6.867078828E-1
3.457459167E-1,3.097928308E-1,8.154322296E-2,-3.843988806E-1,5.003832478E-1
3.557749167E-1,1.468587780E-1,7.131585807E-2,-9.130719602E-2,1.870573610E-1
3.658049167E-1,-5.336465020E-2,1.757392359E-1,3.172056019E-2,1.863820240E-1
3.758339167E-1,-6.539192694E-1,2.536966538E-1,1.251649135E-1,7.124876551E-1
3.858629167E-1,-1.957177538E0,2.919856837E-1,2.688929826E-1,1.997023533E0
3.958919167E-1,2.218268435E-1,2.769954693E-1,8.833026159E-1,9.519228696E-1
4.059209167E-1,1.441224784E0,4.166965610E-1,1.567575951E0,2.169806273E0
4.159499167E-1,3.107286412E-1,4.024816874E-1,1.477718865E0,1.562752968E0
4.259789167E-1,-3.726340269E-1,1.375849843E-1,1.163076097E0,1.229036921E0
4.360089167E-1,-5.910424054E-1,-3.855507821E-1,6.727765399E-1,9.749916939E-1
4.460379167E-1,-7.594622429E-1,-7.483602807E-1,-3.548347735E-1,1.123714254E0
4.560669167E-1,-4.161787535E-1,-6.385451853E-1,-4.760431101E0,4.821063055E0
4.660959167E-1,2.524461975E0,-3.036061478E-1,-3.119090770E0,4.024153600E0
4.761249167E-1,2.017846201E0,-9.656670803E-1,-8.764064097E-1,2.402562048E0
4.861539167E-1,4.334614419E-1,-9.321870929E-1,1.119838861E0,1.520164686E0
4.961829167E-1,-4.229964242E-1,-1.501421723E-1,2.869713455E0,2.904603925E0
5.062129167E-1,-9.443032546E-1,-2.879923278E-1,2.655772020E0,2.833332533E0
5.162419167E-1,-8.276184118E-1,6.026102445E-1,2.461267900E0,2.665695222E0
5.262710417E-1,-1.442700913E0,6.287505144E-1,5.900904787E-1,1.680749805E0
5.363000417E-1,-1.413744624E0,1.450390148E-1,-1.245299644E0,1.889571746E0
5.463290417E-1,-1.602752947E0,-3.091636339E-1,-2.526725140E0,3.008112215E0
5.563580417E-1,-2.049778577E0,-6.097043788E-1,-2.807987908E0,3.529607306E0
5.663880417E-1,-1.572765940E0,-6.031452647E-1,-2.291284078E0,2.843828342E0
5.764170417E-1,-1.201730944E0,-6.219399700E-1,-1.898969237E0,2.331748432E0
5.864460417E-1,-7.052690788E-1,-4.961780557E-1,-7.285835356E-1,1.128907040E0
5.964750417E-1,1.211221486E-1,-4.968338209E-1,-7.416549861E-2,5.167348853E-1
6.065040417E-1,5.234199411E-1,-4.258012605E-1,-3.160408366E-1,7.450885575E-1
6.165330417E-1,4.369830737E-1,-3.983839586E-1,-2.682135361E-1,6.493092377E-1
6.265620417E-1,-3.806501941E-1,-1.412032413E-1,4.796225417E-1,6.283873870E-1
6.365920417E-1,-1.103495163E0,2.143828994E-1,1.099795775E0,1.572645017E0
6.466210417E-1,-1.096827802E0,7.809909600E-1,7.502439612E-1,1.541377341E0
6.566500417E-1,-1.840044068E0,1.416144760E0,-7.709319949E-2,2.323181335E0
6.666790417E-1,-3.013896437E0,8.404334620E-1,-2.354709996E0,3.915936581E0
6.767080417E-1,-2.744704077E0,1.004943120E0,-2.545389453E0,3.875863596E0
6.867370417E-1,-2.336722499E0,2.134926608E0,-1.482413009E0,3.495101142E0
6.967670417E-1,-2.237625204E0,2.117144348E0,1.520566092E0,3.435314830E0
7.067960417E-1,-1.571385120E-1,1.709086171E0,1.540784009E0,2.306443890E0
7.168250417E-1,5.530985074E-1,1.013155827E-1,-3.361119890E-1,6.550985234E-1
7.268540417E-1,2.809986193E0,-1.495473350E0,-1.867587231E0,3.690575160E0
7.368830417E-1,1.633844639E0,-2.342283493E0,-2.541184135E0,3.822742089E0
7.469120417E-1,1.484258391E0,-1.647933944E0,-2.239758414E0,3.152019512E0
7.569410417E-1,2.496918958E-1,-1.291373072E0,-2.456112410E0,2.786122507E0
7.669710417E-1,-2.050728749E0,-8.703489867E-1,-2.501835297E0,3.349951584E0
7.770000417E-1,-2.821418377E0,-7.183041304E-2,-3.482177135E0,4.482311777E0
7.870290417E-1,-2.413002351E0,8.560379264E-1,-3.850592067E0,4.624115109E0
7.970580417E-1,-1.534888262E0,1.251153876E0,-3.856432850E0,4.335128871E0
8.070870417E-1,-6.533178833E-1,1.073327477E0,-2.575567517E0,2.865729255E0
8.171160417E-1,4.544301054E-1,1.250904200E0,-1.380356877E0,1.917460077E0
8.271460417E-1,1.250729515E0,1.885608642E0,-2.110692238E0,3.094328036E0
8.371750417E-1,1.413599760E0,2.238048103E0,-2.128894036E0,3.396956492E0
8.472040417E-1,1.800659270E0,2.450171639E0,-7.368836582E-2,3.041569470E0
8.572330417E-1,2.826580884E0,2.548842233E0,9.266070950E-1,3.917238432E0
8.672620417E-1,2.052123895E0,1.809449535E0,4.928440903E0,5.636918470E0
8.772910417E-1,-3.509706411E-1,8.633060154E-1,1.029178016E1,1.033388681E1
8.873200417E-1,-3.176513937E0,-1.076272134E0,1.440437252E1,1.478967715E1
8.973500417E-1,-4.744439551E0,-2.331025557E0,1.679910904E1,1.761117405E1
9.073790417E-1,-3.845300921E0,-1.838712072E0,1.730040955E1,1.781772634E1
9.174080417E-1,-1.542073613E0,-6.542945145E-1,1.672305314E1,1.680674265E1
9.274370417E-1,9.948041944E-1,8.757354417E-1,1.465329082E1,1.471310572E1
9.374660417E-1,1.783718570E0,1.789621919E0,1.208459028E1,1.234591919E1
9.474950416E-1,8.709601669E-1,1.639861570E0,1.005286878E1,1.022290997E1
9.575250417E-1,-7.081385998E-1,1.230336327E0,8.407962232E0,8.526958230E0
9.675540417E-1,-2.035671000E0,1.034557221E0,7.475203866E0,7.816197151E0
9.775830416E-1,-1.949909595E0,8.582701010E-1,6.942330732E0,7.261868285E0
9.876120416E-1,-8.139623858E-1,3.615783674E-1,6.091017648E0,6.155791555E0
9.976410416E-1,-1.964588445E-1,9.942342371E-2,5.128454854E0,5.133179355E0
1.007670042E0,-4.682979468E-1,-2.172398490E-1,4.211745341E0,4.243264656E0
1.017700042E0,-7.790033452E-1,-2.358895433E-1,2.979913005E0,3.089072936E0
1.027729042E0,-1.058642487E0,3.039038588E0,-1.955602444E0,3.765748315E0
1.037758042E0,-6.725819007E-1,5.247250981E0,-4.604502232E0,7.013376510E0
1.047787042E0,7.420371748E-1,3.057845864E0,2.310521418E-1,3.155063484E0
1.057816042E0,1.228816343E0,2.247656833E0,3.543645405E0,4.372570594E0
1.067845042E0,8.751817104E-1,1.077795627E0,3.096125246E0,3.393166365E0
1.077874042E0,4.086235661E-1,2.110540795E-1,1.409495307E0,1.482630791E0
1.087904042E0,3.014126014E-1,-7.091886136E-1,-7.886198223E-2,7.746078092E-1
1.097933042E0,3.651301854E-1,-2.005138009E0,-1.559183443E0,2.566116033E0
1.107962042E0,5.014759254E-1,-2.958609844E0,-3.046435023E0,4.276168456E0
1.117991042E0,9.805970684E-1,-3.003318824E0,-3.548295695E0,4.750989046E0
1.128020042E0,1.579226675E0,-2.116735628E0,-2.972544343E0,3.976247789E0
1.138049042E0,1.795334064E0,-1.384205807E0,-2.823423972E0,3.620907765E0
1.148079042E0,1.110233640E0,-1.669069582E0,-3.933354142E0,4.414712540E0
1.158108042E0,-1.554329523E-1,-2.374434116E0,-5.801113281E0,6.270168424E0
1.168137042E0,-7.802172272E-1,-2.873209213E0,-7.651734815E0,8.210549055E0
1.178166042E0,-1.271415356E0,-3.365969279E0,-8.606019706E0,9.327905519E0
1.188195042E0,-1.646916090E0,-3.864615736E0,-8.949494509E0,9.886406797E0
1.198224042E0,-1.925082318E0,-3.805200424E0,-9.388463114E0,1.031158241E1
1.208253042E0,-1.707915413E0,-3.416618445E0,-9.761983835E0,1.048268024E1
1.218283042E0,-9.036304611E-1,-3.341904478E0,-9.832199539E0,1.042386787E1
1.228312042E0,-3.831169517E-1,-3.489988430E0,-9.197026443E0,9.844394000E0
1.238341042E0,-3.187951675E-1,-3.443233801E0,-8.350025681E0,9.037721961E0
1.248370042E0,-2.980421566E-1,-3.282623359E0,-7.580848435E0,8.266420522E0
1.258399042E0,-3.196928613E-2,-3.345440581E0,-7.001812702E0,7.760049989E0
1.268428042E0,3.006185860E-1,-3.515696298E0,-6.594561734E0,7.479220311E0
1.278458042E0,2.958424341E-1,-3.615953535E0,-6.192476195E0,7.177005235E0
1.288487042E0,-1.627785169E-1,-3.521165492E0,-6.134950703E0,7.075501635E0
1.298516042E0,-6.424395771E-1,-3.585514685E0,-6.437075751E0,7.396255024E0
1.308545042E0,-1.296927927E0,-4.195947627E0,-6.495608718E0,7.840977691E0
1.318574042E0,-2.059212767E0,-4.637175011E0,-6.136611312E0,7.962521441E0
1.328603042E0,-1.933920092E0,-4.522567246E0,-5.842722652E0,7.637477948E0
1.338633042E0,-1.291940837E0,-4.234007153E0,-5.486373450E0,7.049554690E0
1.348662042E0,-9.033369309E-1,-4.064707456E0,-5.422608393E0,6.836852061E0
1.358691042E0,-3.917880801E-1,-3.910034276E0,-5.845749756E0,7.043767184E0
1.368720042E0,4.927424511E-1,-3.750034283E0,-6.220001963E0,7.279696193E0
1.378749042E0,1.302843263E0,-3.475136502E0,-6.330582751E0,7.338273111E0
1.388778042E0,1.163701165E0,-3.931886198E0,-6.427936553E0,7.624453935E0
1.398808042E0,9.229341665E-1,-4.638896139E0,-6.933290352E0,8.392954186E0
1.408837042E0,1.544523450E0,-4.355018497E0,-7.407793071E0,8.730815368E0
1.418866042E0,1.685403194E0,-3.916807691E0,-7.205934323E0,8.373019520E0
1.428895042E0,3.737653535E-1,-3.851734028E0,-6.525564004E0,7.586734550E0
1.438924042E0,-6.766943206E-1,-3.675558005E0,-5.890202628E0,6.975824600E0
1.448953042E0,-9.688571019E-1,-3.799433023E0,-5.788763961E0,6.991721074E0
1.458982042E0,-1.458779587E0,-3.031125843E0,-6.564049208E0,7.375805296E0
1.469012042E0,-2.469879387E0,-1.660844888E0,-4.888650600E0,5.723426825E0
1.479041042E0,-2.447738028E0,3.779084712E-1,1.094087139E0,2.707630501E0
1.489070042E0,-1.124950205E0,3.460814917E0,4.769188476E0,5.998992547E0
1.499099042E0,4.454889452E-1,5.549839128E0,5.526329813E0,7.844711336E0
1.509128042E0,1.722615459E0,8.190956272E0,5.531963021E0,1.003303461E1
1.519157042E0,4.071016894E0,9.433969654E0,3.449838524E0,1.083855838E1
1.529187667E0,4.868595528E0,9.236943045E0,2.348095041E0,1.070223760E1
1.539216667E0,2.737582169E0,7.893544664E0,2.866628464E0,8.832890934E0
1.549245667E0,6.346341290E-1,5.632353281E0,4.412800097E0,7.183242211E0
1.559274667E0,-1.702348863E-1,3.615639832E0,7.012065210E0,7.891190647E0
1.569303667E0,-8.009754275E-1,2.788059720E0,1.054532713E1,1.093703629E1
1.579332667E0,-8.617798921E-1,2.641851262E0,1.426225243E1,1.453044690E1
1.589362667E0,-9.009977340E-2,2.272350502E0,1.699763371E1,1.714908879E1
1.599391667E0,8.194335524E-1,1.786989503E0,1.791402806E1,1.802157607E1
1.609420667E0,1.336041268E0,1.682168222E0,1.743389213E1,1.756574197E1
1.619449667E0,1.437171640E0,1.601964011E0,1.575163883E1,1.589798342E1
1.629478667E0,1.538447462E0,1.226120484E0,1.387925981E1,1.401799004E1
1.639507667E0,1.258047159E0,1.408468243E0,1.173494900E1,1.188593680E1
1.649536667E0,1.168675976E0,1.819770748E0,9.154134777E0,9.406144408E0
1.659566667E0,1.409185112E0,2.142207853E0,6.467480103E0,6.957237674E0
1.669595667E0,1.856593588E0,1.984029560E0,3.743530133E0,4.625724906E0
1.679624667E0,2.313378367E0,1.155345201E0,1.076699274E0,2.801039687E0
1.689653667E0,3.492722003E0,3.114361542E-1,-1.058943619E0,3.662985266E0
1.699682667E0,3.601456826E0,-6.042892724E-2,-2.469258120E0,4.367078954E0
1.709711667E0,3.017751799E0,-3.482063699E-1,-3.078637978E0,4.325053225E0
1.719741667E0,2.529644655E0,-1.133633320E0,-3.404184049E0,4.390067838E0
1.729770667E0,2.029920555E0,-1.881137276E0,-3.363945265E0,4.356074225E0
1.739799667E0,1.544226411E0,-2.622863306E0,-3.489755126E0,4.630598014E0
1.749828667E0,-1.410088799E0,-2.710097331E0,-4.410681651E0,5.365360248E0
1.759857667E0,-8.719707119E0,-7.946950793E-1,-6.037622044E0,1.063568110E1
1.769886667E0,-7.278269643E0,-8.414067310E-1,-5.678151013E0,9.269442983E0
1.779916667E0,-4.795992990E0,-1.584255134E0,-6.394205135E0,8.148452147E0
1.789945667E0,-1.954698903E0,-3.452921176E0,-6.442386192E0,7.566231050E0
1.799974667E0,-1.213081339E0,-3.842222947E0,-6.124526871E0,7.331034914E0
1.810003667E0,-1.012560434E0,-3.102426791E0,-5.269936423E0,6.198593432E0
1.820032667E0,-3.564604457E-1,-3.059519922E0,-3.874533491E0,4.949720798E0
1.830061667E0,-2.557129200E-1,-2.962086014E0,-2.827730446E0,4.103096651E0
1.840090667E0,-5.115233423E-1,-2.325657520E0,-2.975222953E0,3.810812335E0
1.850120667E0,-1.768956397E0,-1.905277798E0,-3.980782662E0,4.754568416E0
1.860149667E0,-2.843046351E0,-1.321895830E0,-4.307753699E0,5.327951114E0
1.870178667E0,-3.423865777E0,-2.343534797E-1,-4.565511244E0,5.711538438E0
1.880207667E0,-3.150455820E0,4.997919273E-1,-3.977421098E0,5.098533361E0
1.890236667E0,-2.089754236E0,7.698075753E-1,-2.767566690E0,3.552337520E0
1.900265667E0,-1.289783506E0,5.535944974E-1,-1.852866281E0,2.324461618E0
1.910295667E0,-8.206586172E-1,-2.091812164E-1,-1.129003787E0,1.411342233E0
1.920324667E0,1.250134706E-3,-8.895834026E-1,-2.250265861E-1,9.176040308E-1
1.930353667E0,7.062221749E-1,-9.546366003E-1,3.874704230E-1,1.249085316E0
1.940382667E0,1.352085297E0,-1.027613068E0,6.662908083E-1,1.824298963E0
1.950411667E0,1.884964279E0,-1.261321015E0,7.873813820E-1,2.400831205E0
1.960440667E0,2.117708751E0,-1.469023470E0,6.000617355E-1,2.646279350E0
1.970470667E0,2.463218823E0,-1.539049433E0,-5.918785572E-2,2.905102981E0
1.980499667E0,3.260241679E0,-1.736595567E0,-8.832915062E-1,3.798044741E0
1.990528667E0,3.313587582E0,-1.612201901E0,-1.199948639E0,3.875426992E0
2.000557667E0,3.272988609E0,-1.347320985E0,-1.396906836E0,3.805138234E0
2.010586667E0,2.683024431E0,-1.084560563E0,-1.351010286E0,3.193762750E0
2.020615667E0,9.090905911E-1,-8.108866042E-1,-1.255358024E0,1.749258859E0
2.030645667E0,-5.544034013E0,4.923750266E-1,-2.070935850E0,5.938646444E0
2.040674667E0,-7.865878564E0,6.093120307E-2,-2.632169734E0,8.294822222E0
2.050703667E0,-4.267671036E0,-2.233207486E0,-3.032850772E0,5.691960606E0
2.060732667E0,-3.551236845E0,-2.913448874E0,-3.970842395E0,6.071824832E0
2.070761667E0,-2.402187194E0,-2.607732174E0,-3.379495935E0,4.898138746E0
2.080790667E0,-1.089981662E0,-1.878257815E0,-2.801673499E0,3.544754835E0
2.090819667E0,2.484955555E-1,-1.913992781E0,-2.694915621E0,3.314768259E0
2.100849667E0,1.484602792E0,-1.921878336E0,-2.565159473E0,3.532379497E0
2.110878667E0,2.485583839E0,-1.549115999E0,-2.602261811E0,3.917863439E0
2.120907667E0,2.558325248E0,-1.170047440E0,-3.237898591E0,4.289292060E0
2.130936667E0,1.872329907E0,-1.134108114E0,-3.944783109E0,4.511444810E0
2.140965667E0,5.053124298E-1,-1.278085859E0,-4.247465982E0,4.464281732E0
2.150994667E0,-6.154887369E-1,-1.109938940E0,-3.768193104E0,3.976187886E0
2.161024667E0,-1.211189327E0,-3.109666228E-1,-2.795988836E0,3.062879919E0
2.171053667E0,-1.611512222E0,1.165767571E0,-1.508966970E0,2.496591073E0
2.181082667E0,-1.136529958E0,2.371367836E0,2.112920612E-1,2.638130037E0
2.191111667E0,-1.523509580E0,2.735732694E0,2.931039637E0,4.289091765E0
2.201140667E0,-1.869809757E0,2.362697585E0,6.490929776E0,7.156165018E0
2.211169667E0,-1.810821584E0,2.029937220E0,1.078566406E1,1.112341086E1
2.221199667E0,-1.052459495E0,2.335975517E0,1.484289030E1,1.506239838E1
2.231228667E0,6.055497859E-1,2.155138971E0,1.722087105E1,1.736576270E1
2.241257667E0,2.286074209E0,1.726391591E0,1.760938461E1,1.784087973E1
2.251286667E0,3.404129670E0,1.824064943E0,1.697443196E1,1.740823518E1
2.261315667E0,3.882413199E0,2.463742734E0,1.639707788E1,1.702960139E1
2.271344667E0,3.792271938E0,2.734993314E0,1.614419984E1,1.680763824E1
2.281374667E0,3.299195538E0,2.427434741E0,1.621968973E1,1.672888118E1
2.291403667E0,2.606407779E0,1.933680648E0,1.601890336E1,1.634434909E1
2.301432667E0,1.925867306E0,1.765611790E0,1.500103410E1,1.522686356E1
2.311461667E0,1.510359338E0,1.753063957E0,1.335857929E1,1.355750932E1
2.321490667E0,1.339360878E0,1.623890485E0,1.164277583E1,1.183153147E1
2.331519667E0,1.154647848E0,1.494734555E0,9.885974042E0,1.006478643E1
2.341548667E0,9.150625717E-1,1.618179802E0,8.120283315E0,8.330356925E0
2.351578667E0,1.370624479E0,1.698692161E0,6.599164662E0,6.950765480E0
2.361607667E0,2.029863106E0,1.800138136E0,5.684888175E0,6.299110660E0
2.371636667E0,1.405802936E0,2.704272043E0,4.595098740E0,5.514009576E0
2.381665667E0,1.240437246E0,3.002701943E0,3.323498905E0,4.647639023E0
2.391694667E0,1.655922410E0,2.441708379E0,2.391076169E0,3.797533947E0
2.401723667E0,1.851272622E0,1.720670090E0,2.272175378E0,3.398631611E0
2.411753667E0,1.929104910E0,8.917913112E-1,2.778876375E0,3.498412698E0
2.421782667E0,2.368711300E0,-1.091982141E-1,3.798668792E0,4.478013182E0
2.431811667E0,2.491795043E0,-6.932502732E-1,4.221900786E0,4.951170036E0
2.441840667E0,2.305133355E0,-5.449733627E-1,2.904437730E0,3.747851955E0
2.451869667E0,2.103955369E0,2.532604516E-2,3.457090241E-1,2.132319003E0
2.461898667E0,1.694890009E0,3.469465873E-1,-2.823305858E0,3.311205226E0
2.471928667E0,8.245895541E-1,2.021590027E-1,-5.682462165E0,5.745536742E0
2.481957667E0,7.108781666E-2,-7.241864294E-2,-7.465062456E0,7.465752166E0
2.491986667E0,5.764652967E-2,-5.051175714E-2,-8.300280493E0,8.300634363E0
2.502015667E0,-5.407665834E-1,-6.447736394E-1,-8.812505940E0,8.852594111E0
2.512044667E0,-1.795313453E0,-1.918031745E0,-9.180769429E0,9.549268217E0
2.522073292E0,-2.237209905E0,-2.569458639E0,-8.665444958E0,9.311131090E0
2.532103292E0,-2.939128675E0,-2.470608242E0,-7.739995027E0,8.640017678E0
2.542132292E0,-3.650685704E0,-2.143426413E0,-7.409917365E0,8.533970837E0
2.552161292E0,-3.597869559E0,-2.058815449E0,-8.099791163E0,9.098901214E0
2.562190292E0,-3.106442658E0,-2.185063266E0,-9.452779562E0,1.018722381E1
2.572219292E0,-2.828896089E0,-2.376464269E0,-1.077091739E1,1.138696170E1
2.582248292E0,-2.398820368E0,-2.507611762E0,-1.168358589E1,1.218805297E1
2.592278292E0,-1.811147713E0,-2.653736020E0,-1.223215529E1,1.264706266E1
2.602307292E0,-1.368778220E0,-2.833039718E0,-1.185424039E1,1.226469254E1
2.612336292E0,-1.003833172E0,-3.299773535E0,-1.100333485E1,1.153124297E1
2.622365292E0,-1.108208749E0,-3.532803205E0,-9.808386753E0,1.048395325E1
2.632394292E0,-1.478937278E0,-3.757203847E0,-8.620797374E0,9.519557951E0
2.642423292E0,-1.930186791E0,-3.995382867E0,-7.726394404E0,8.909875183E0
2.652453292E0,-2.228017790E0,-4.071925259E0,-6.990592480E0,8.391246738E0
2.662482292E0,-2.412583982E0,-4.035020850E0,-6.482662983E0,8.007925704E0
2.672511292E0,-2.483734364E0,-3.935518196E0,-6.306353644E0,7.837559323E0
2.682540292E0,-2.646030559E0,-3.816261017E0,-6.608568154E0,8.077035280E0
2.692569292E0,-2.670705224E0,-3.688925617E0,-6.995145707E0,8.347029536E0
2.702598292E0,-2.404370399E0,-3.478136416E0,-6.848843109E0,8.048918056E0
2.712628292E0,-2.224105856E0,-3.218539630E0,-6.486271884E0,7.574784958E0
2.722657292E0,-1.773588854E0,-3.190085324E0,-6.556137925E0,7.503679517E0
2.732686292E0,-1.209757490E0,-2.956867081E0,-6.934931665E0,7.635434062E0
2.742715292E0,-8.272213858E-1,-3.040672300E0,-6.995948530E0,7.672892485E0
2.752744292E0,-1.013661319E0,-3.274186119E0,-7.110573252E0,7.893545210E0
2.762773292E0,-1.527541966E0,-3.607542900E0,-6.880954848E0,7.918035732E0
2.772803292E0,-1.851588956E0,-3.911696640E0,-6.322534643E0,7.661866390E0
2.782832292E0,-1.532470730E0,-4.094813600E0,-5.639627802E0,7.135920873E0
2.792861292E0,-7.817312175E-1,-3.953886055E0,-5.736961724E0,7.011208772E0
2.802890292E0,-4.041641140E-1,-3.521192096E0,-6.129535596E0,7.080490734E0
2.812919292E0,-7.583864283E-2,-2.899543318E0,-6.451653444E0,7.073679037E0
2.822948292E0,2.547109265E-1,-2.351289375E0,-6.359484369E0,6.785018851E0
2.832978292E0,1.269720686E0,-2.122694818E0,-5.361696779E0,5.904728296E0
2.843007292E0,1.793411646E0,-1.548091859E0,-4.289766494E0,4.900511229E0
2.853036292E0,1.381927878E0,-7.239437699E-3,-3.617409784E0,3.872393396E0
2.863065292E0,-3.275057647E-1,2.963526475E0,-3.229872703E0,4.395660004E0
2.873094292E0,-2.916852246E0,7.024303433E0,-3.278489962E0,8.282352454E0
2.883123292E0,-4.697166567E0,1.073398988E1,-4.081178770E0,1.240717263E1
2.893153292E0,-3.816950988E0,1.216232316E1,-3.359893144E0,1.318256809E1
2.903182292E0,-1.606968789E0,1.120671622E1,2.267733833E0,1.154623115E1
2.913211292E0,-4.106055530E-1,8.994033920E0,9.637910011E0,1.318903152E1
2.923240292E0,-1.740957297E-1,6.247376288E0,1.557205213E1,1.677941677E1
2.933269292E0,1.930735990E-1,3.626364210E0,2.049774659E1,2.081695007E1
2.943298292E0,3.604660077E-1,1.255659156E0,2.384444023E1,2.388019987E1
2.953328292E0,1.264310550E-1,-5.377880117E-1,2.532262103E1,2.532864656E1
2.963357292E0,1.369261676E-2,-1.349632682E0,2.507116736E1,2.510747157E1
2.973386292E0,-2.577306662E-1,-1.698456518E0,2.379052890E1,2.385247252E1
2.983415292E0,-9.622082330E-1,-2.062634411E0,2.244752170E1,2.256261368E1
2.993444292E0,-1.704692427E0,-2.301120995E0,2.083169043E1,2.102761186E1
3.003473292E0,-1.822268094E0,-2.096401936E0,1.856674923E1,1.877337847E1
3.013503292E0,-1.585349294E0,-1.159259327E0,1.522062277E1,1.534680983E1
3.023532292E0,-1.324426066E0,2.220390974E-1,1.115216053E1,1.123272408E1
3.033561292E0,-1.078625200E0,1.254770233E0,7.277162181E0,7.462906274E0
3.043590292E0,-9.654720026E-1,1.726891235E0,3.992898678E0,4.456178786E0
3.053619292E0,-6.780783565E-1,1.911841005E0,1.294298726E0,2.406270035E0
3.063648292E0,-2.791024769E-1,2.087464466E0,-1.114548885E0,2.382776806E0
3.073678292E0,4.365870710E-1,2.223096773E0,-3.261887963E0,3.971483427E0
3.083707292E0,1.474010561E0,1.960972527E0,-4.839143395E0,5.425442764E0
3.093736292E0,1.799025265E0,1.669984379E0,-5.396897017E0,5.928898476E0
3.103765292E0,1.294829946E0,1.509323065E0,-5.642553749E0,5.982729604E0
3.113794292E0,6.799838179E-1,9.893813404E-1,-5.948463115E0,6.068399036E0
3.123823292E0,1.685850213E-1,2.204923627E-1,-6.079826077E0,6.086158306E0
3.133853292E0,-7.765650563E-2,-5.166918424E-1,-5.859688348E0,5.882937067E0
3.143882292E0,-3.576441414E-1,-9.712982413E-1,-5.638334983E0,5.732551874E0
3.153911292E0,-4.696168593E-1,-1.135275218E0,-5.548380248E0,5.682773371E0
3.163940292E0,-6.559901340E-1,-1.207252104E0,-5.761391391E0,5.922956310E0
3.173969292E0,-9.180096415E-1,-1.217161380E0,-6.366919688E0,6.546899254E0
3.183998292E0,-9.961651339E-1,-1.264919976E0,-7.024488205E0,7.206649850E0
3.194028292E0,-1.079842298E0,-1.352628211E0,-7.381677652E0,7.581874928E0
3.204057292E0,-1.884991761E0,-1.538930149E0,-7.049266950E0,7.457456971E0
3.214086292E0,-2.291118748E0,-1.989049980E0,-6.093682809E0,6.807239904E0
3.224115292E0,-1.888413259E0,-2.035951374E0,-4.733794110E0,5.488169942E0
3.234144292E0,-1.339456334E0,-1.748818002E0,-3.222123973E0,3.903151364E0
3.244173292E0,-1.041390204E0,-1.352928173E0,-1.678442084E0,2.394175438E0
3.254203292E0,-4.422142486E-1,-1.084120267E0,-9.645906079E-1,1.517005352E0
3.264232292E0,-2.964369863E-1,-6.051748332E-1,-8.294263709E-1,1.068671872E0
3.274261292E0,-7.368453589E-1,2.302940503E-1,-1.510945668E0,1.696741949E0
3.284290292E0,-9.726784766E-1,7.975178227E-1,-3.134711022E0,3.377654703E0
3.294319292E0,-8.972648898E-1,7.761202294E-1,-4.178913226E0,4.344049106E0
3.304348292E0,-5.882057749E-2,5.617721209E-1,-3.365261473E0,3.412335353E0
3.314378292E0,1.434759810E0,2.218325445E-1,-1.037815874E0,1.784602807E0
3.324407292E0,2.328061603E0,-1.341246021E-1,1.595575343E0,2.825547896E0
3.334436292E0,2.532443717E0,-6.079236093E-1,3.586488538E0,4.432351783E0
3.344465292E0,2.798744629E0,-1.305781196E0,4.641163689E0,5.574803712E0
3.354494292E0,2.572477264E0,-1.916766700E0,4.561747391E0,5.576842576E0
3.364523292E0,1.591512406E0,-2.196558308E0,3.208832667E0,4.201712415E0
3.374553292E0,3.965762919E-1,-2.066254276E0,1.028746258E0,2.342007334E0
3.384582292E0,-2.830173706E-1,-1.902792439E0,-1.170382193E0,2.251779824E0
3.394611292E0,-4.743539811E-1,-1.649922874E0,-2.785324100E0,3.271893569E0
3.404640292E0,-4.595564690E-1,-1.396051096E0,-3.528016967E0,3.821917651E0
3.414669292E0,-2.868519015E-1,-1.357877549E0,-3.603109834E0,3.861154740E0
3.424698292E0,6.005346291E-2,-1.674808331E0,-3.111085348E0,3.533757406E0
3.434728292E0,1.514213969E-1,-2.606919703E0,-2.463864064E0,3.590206805E0
3.444757292E0,-1.498856622E-1,-3.839160468E0,-1.905315805E0,4.288571688E0
3.454786292E0,-7.300567415E-1,-4.286502578E0,-1.783639340E0,4.699835795E0
3.464815292E0,-5.505303372E-1,-3.822944092E0,-2.389663482E0,4.541858291E0
3.474844292E0,3.481398578E-1,-3.024726942E0,-3.339184645E0,4.518885762E0
3.484873292E0,1.242560954E0,-2.254108943E0,-4.378572836E0,5.079061422E0
3.494903292E0,1.754669310E0,-1.491557762E0,-5.714779726E0,6.161356690E0
3.504932292E0,1.793457693E0,-5.949404517E-1,-7.161483790E0,7.406571049E0
3.514961292E0,1.317468026E0,1.198094487E-3,-7.977772636E0,8.085825850E0
3.524990167E0,7.457246482E-1,-1.097165698E-1,-8.285113401E0,8.319329723E0
3.535019167E0,-3.836307026E-2,-4.288801119E-1,-7.649200047E0,7.661310021E0
3.545049167E0,-6.951272294E-1,-4.540158302E-1,-6.525010273E0,6.577620489E0
3.555078167E0,-7.959335196E-1,-2.727392811E-1,-4.943792183E0,5.014875674E0
3.565107167E0,-7.430449424E-1,6.703481913E-2,-2.875905071E0,2.971100711E0
3.575136167E0,-3.578782127E-1,6.058788380E-1,-5.737580359E-1,9.079450783E-1
3.585165167E0,3.936302819E-1,1.303249936E0,1.479894029E0,2.010843488E0
3.595194167E0,1.213105898E0,2.129878707E0,3.454190022E0,4.235497365E0
3.605224167E0,8.678036937E-1,3.053497582E0,5.792959923E0,6.605703249E0
3.615253167E0,-4.154210274E-1,3.619761827E0,8.533551654E0,9.278833663E0
3.625282167E0,-1.062521384E0,4.080917107E0,1.057830309E1,1.138785899E1
3.635311167E0,-8.096243365E-1,4.667193447E0,1.206444311E1,1.296105605E1
3.645340167E0,1.403817441E-1,5.154684294E0,1.393186837E1,1.485555228E1
3.655369167E0,1.032646936E0,5.372502433E0,1.593501219E1,1.684798966E1
3.665399167E0,1.395118319E0,5.116018996E0,1.840322366E1,1.915198806E1
3.675428167E0,9.369173442E-1,4.259395179E0,2.098140020E1,2.142987205E1
3.685457167E0,5.959831199E-2,3.078076061E0,2.306062565E1,2.326522211E1
3.695486167E0,-4.295462559E-1,2.080284086E0,2.334478630E1,2.344122734E1
3.705515167E0,-1.915544193E-2,1.559800909E0,2.135297906E1,2.140988231E1
3.715544167E0,9.227631354E-1,1.619859122E0,1.782408969E1,1.792131716E1
3.725574167E0,1.726306514E0,2.021799358E0,1.375239861E1,1.400700805E1
3.735603167E0,1.786198082E0,2.303672282E0,9.665626983E0,1.009563047E1
3.745632167E0,7.744753345E-1,2.186729723E0,6.135833632E0,6.559729666E0
3.755661167E0,-6.888167681E-1,1.501383424E0,4.003006175E0,4.330436370E0
3.765690167E0,-1.381358651E0,9.102179343E-1,3.123194931E0,3.534260176E0
3.775719167E0,-8.797526251E-1,8.584876174E-1,3.344186354E0,3.562940926E0
3.785749167E0,1.369799437E-1,1.242082506E0,4.238961791E0,4.419313241E0
3.795778167E0,6.999840729E-2,1.834993097E0,5.001374978E0,5.327837376E0
3.805807167E0,-2.702071443E-2,2.723653516E0,4.812042135E0,5.529445551E0
3.815836167E0,5.478371827E-1,3.594722587E0,3.308683230E0,4.916252717E0
3.825865167E0,1.155049624E0,4.228727702E0,5.011899966E-1,4.412195488E0
3.835894167E0,1.664747320E0,4.408586302E0,-2.494837350E0,5.332094356E0
3.845924167E0,1.599939413E0,4.086088092E0,-4.569225980E0,6.335120210E0
3.855953167E0,6.508092816E-1,3.327870868E0,-5.730219884E0,6.658355439E0
3.865982167E0,-6.349354067E-1,2.095264214E0,-5.401797568E0,5.828609788E0
3.876011167E0,-2.275289166E0,5.303085458E-1,-3.049915286E0,3.841894219E0
3.886040167E0,-3.601962610E0,-9.202826004E-1,-2.974689102E-1,3.729549900E0
3.896069167E0,-4.291555742E0,-1.897045503E0,1.595523303E0,4.955999086E0
3.906099167E0,-4.619462918E0,-2.475138372E0,1.734847249E0,5.520456738E0
3.916128167E0,-4.746650383E0,-2.793642349E0,-7.849477708E-2,5.508292736E0
3.926157167E0,-4.196291443E0,-2.934747064E0,-3.479878594E0,6.191216135E0
3.936186167E0,-3.294020167E0,-2.964858471E0,-6.840245363E0,8.150454665E0
3.946215167E0,-2.420728715E0,-2.794940431E0,-9.088912595E0,9.812234795E0
3.956245167E0,-1.730456429E0,-3.001493323E0,-1.024536847E1,1.081531399E1
3.966274167E0,-1.268450817E0,-3.689075890E0,-1.073129198E1,1.141835697E1
3.976303167E0,-8.897488788E-1,-4.238516234E0,-1.076303066E1,1.160170255E1
3.986332167E0,-1.170949958E0,-4.911507951E0,-1.049258524E1,1.164424232E1
3.996361167E0,-1.935241709E0,-5.163052830E0,-9.745217528E0,1.119694332E1
4.006390167E0,-2.659473892E0,-4.954910663E0,-8.632746744E0,1.030282764E1
4.016420167E0,-3.377511682E0,-4.700176713E0,-7.460864739E0,9.442655821E0
4.026449167E0,-3.907562073E0,-4.604605728E0,-6.988737159E0,9.236551431E0
4.036478167E0,-4.004928447E0,-4.529979469E0,-7.182999789E0,9.389124124E0
4.046507167E0,-3.708774868E0,-4.438771383E0,-7.532084411E0,9.496841474E0
4.056536167E0,-3.262657164E0,-4.216201797E0,-7.761457232E0,9.416023987E0
4.066565167E0,-2.800576562E0,-3.878845813E0,-8.146881714E0,9.447769874E0
4.076595167E0,-1.988879680E0,-3.461817422E0,-8.557784854E0,9.443278237E0
4.086624167E0,-1.030282322E0,-3.168842390E0,-8.788910086E0,9.399360843E0
4.096653167E0,-5.715977821E-1,-3.123306321E0,-8.843844092E0,9.396560260E0
4.106682167E0,-4.038063741E-1,-3.166772475E0,-8.797249970E0,9.358585071E0
4.116711167E0,-3.547711851E-1,-3.129025482E0,-8.551441795E0,9.112838187E0
4.126740167E0,-6.004963298E-1,-2.884727935E0,-8.097534138E0,8.616978021E0
4.136770167E0,-7.298816174E-1,-2.744715187E0,-7.762995635E0,8.266213756E0
4.146799167E0,-7.377111854E-1,-2.776355640E0,-7.466383926E0,7.999953585E0
4.156828167E0,-6.339339249E-1,-2.778579921E0,-7.197628938E0,7.741333278E0
4.166857167E0,-2.695616117E-1,-2.708505135E0,-7.039081101E0,7.547007769E0
4.176886167E0,3.362952992E-2,-2.536149975E0,-7.124289066E0,7.562319905E0
4.186916167E0,9.523652494E-2,-2.458917612E0,-7.477791844E0,7.872275191E0
4.196945167E0,3.822120219E-2,-2.631689093E0,-7.944379773E0,8.369015373E0
4.206974167E0,1.180741413E-1,-2.843977812E0,-8.281057772E0,8.756601460E0
4.217003167E0,2.403594473E-1,-3.036599714E0,-8.336191753E0,8.875291738E0
4.227032167E0,3.550290473E-1,-3.233855242E0,-7.842979113E0,8.490947339E0
4.237061167E0,3.379665066E-1,-3.222585903E0,-7.122066540E0,7.824519989E0
4.247091167E0,2.484799508E-1,-3.067707778E0,-6.615846183E0,7.296711178E0
4.257120167E0,3.977552002E-1,-3.067000265E0,-6.293660508E0,7.012479049E0
4.267149167E0,5.513620305E-1,-3.247768106E0,-6.008017591E0,6.851880993E0
4.277178167E0,5.975262001E-1,-3.399496044E0,-5.723510789E0,6.683725507E0
4.287207167E0,6.254244719E-1,-3.491046776E0,-5.609848518E0,6.636939336E0
4.297236167E0,8.831360433E-1,-3.477382418E0,-5.494685267E0,6.562292582E0
4.307266167E0,1.155413467E0,-3.401268627E0,-4.862846253E0,6.045732564E0
4.317295167E0,1.247341199E0,-2.953902251E0,-3.358443035E0,4.643332660E0
4.327324167E0,1.475732858E0,-2.198641378E0,-8.425463533E-1,2.778793935E0
4.337353167E0,1.564783760E0,-8.937802416E-1,2.293548705E0,2.916805958E0
4.347382167E0,2.410211328E-1,1.262338430E0,3.896167604E0,4.102646890E0
4.357412167E0,-2.301744747E0,3.737181226E0,1.322317999E0,4.584002322E0
4.367441167E0,-3.404117098E0,5.883092414E0,-3.590725431E0,7.687138524E0
4.377470167E0,-3.233058851E0,7.732197765E0,-6.377645236E0,1.053156734E1
4.387499167E0,-2.227158834E0,8.049757708E0,-5.716096519E0,1.012089893E1
4.397528167E0,-1.146682697E0,7.176421672E0,-3.681556664E0,8.146764308E0
4.407557167E0,-9.673422345E-1,6.581144128E0,-1.595178902E0,6.840453549E0
4.417587167E0,-1.247393970E0,6.341079088E0,2.017993990E0,6.770345298E0
4.427616167E0,-1.774952278E0,6.300306453E0,6.436862912E0,9.180278925E0
4.437645167E0,-1.977506845E0,6.105289532E0,8.956866678E0,1.101864576E1
4.447674167E0,-1.441860815E0,5.651380121E0,9.619956136E0,1.124991626E1
4.457703167E0,-6.610262677E-1,4.863838525E0,1.287495725E1,1.377891161E1
4.467732167E0,2.148486301E-2,3.359166920E0,1.936482283E1,1.965402827E1
4.477762167E0,3.360289586E-1,1.220354837E0,2.456380680E1,2.459639782E1
4.487791167E0,4.605807184E-1,-5.258082363E-1,2.682878659E1,2.683789111E1
4.497820167E0,1.990873142E-1,-1.085094121E0,2.713483688E1,2.715725386E1
4.507849167E0,-9.298897219E-1,-1.036252621E0,2.610918380E1,2.614628067E1
4.517878167E0,-1.449068385E0,-6.692883834E-1,2.326182366E1,2.331652175E1
4.527910917E0,-1.503924185E0,6.228424877E-2,1.883710928E1,1.889715199E1
4.537939917E0,-1.298601546E0,1.046207213E0,1.451760736E1,1.461307082E1
4.547968917E0,-7.566493667E-1,1.927347821E0,1.117879342E1,1.136893180E1
4.557997917E0,-3.432262232E-1,2.421173250E0,9.029936993E0,9.355193544E0
4.568026917E0,4.551611535E-2,2.554175479E0,7.607493027E0,8.024950732E0
4.578055917E0,-5.054187030E-3,2.580349370E0,6.274349493E0,6.784223609E0
4.588085917E0,-6.906743554E-1,2.523457424E0,4.790881062E0,5.458700375E0
4.598114917E0,-1.971840455E0,2.205178273E0,2.977190541E0,4.196978617E0
4.608143917E0,-3.156877525E0,1.922621809E0,9.063383067E-1,3.805758722E0
4.618172917E0,-3.463782087E0,1.971739298E0,-8.417072779E-1,4.073575008E0
4.628201917E0,-2.840027726E0,1.947705780E0,-2.304061414E0,4.143430256E0
4.638230917E0,-1.364686339E0,1.759841465E0,-2.628496513E0,3.445055109E0
4.648260917E0,2.150960770E-1,2.060363499E0,-1.331864163E0,2.462768000E0
4.658289917E0,1.632330941E0,2.009882147E0,-2.205002564E-1,2.598605570E0
4.668318917E0,1.978281455E0,1.519828465E0,3.486338013E-1,2.518932632E0
4.678347917E0,-1.252725023E-1,2.065809011E0,1.686555095E0,2.669780545E0
4.688376917E0,-1.340689658E0,7.364427781E-1,8.659404784E-1,1.757739923E0
4.698406917E0,-1.998131437E0,-1.898216993E0,-3.499231124E-1,2.778165433E0
4.708435917E0,-1.948471765E0,-3.665337657E0,-1.265436870E0,4.339651233E0
4.718464917E0,-1.825105016E0,-3.233956398E0,-2.394502053E0,4.418497752E0
4.728493917E0,-1.135754544E0,-1.591919664E0,-2.721751417E0,3.351429154E0
4.738522917E0,-6.328901969E-2,-3.773456767E-1,-3.447334161E0,3.468502282E0
4.748551917E0,6.846387863E-1,-3.044499010E-2,-4.450804660E0,4.503256521E0
4.758581917E0,1.066741319E0,-1.410012200E-1,-4.976313227E0,5.091317287E0
4.768610917E0,1.485063991E0,-4.959982538E-1,-5.125642344E0,5.359443885E0
4.778639917E0,1.886715958E0,-8.611419609E-1,-5.012484688E0,5.424598172E0
4.788668917E0,1.977965121E0,-9.048697785E-1,-4.807850266E0,5.276983941E0
4.798697917E0,1.570687839E0,-8.907975769E-1,-4.886288325E0,5.209260428E0
4.808727917E0,6.314833568E-1,-1.193641832E0,-5.260388505E0,5.430951968E0
4.818756917E0,-3.545398181E-1,-1.686792785E0,-5.477613736E0,5.742405473E0
4.828785917E0,-5.072458117E-1,-2.391472610E0,-5.624948367E0,6.133227837E0
4.838814917E0,-7.163670210E-1,-2.475808171E0,-6.034404906E0,6.561771893E0
4.848843917E0,-8.088068227E-1,-1.976379941E0,-6.279727762E0,6.632889786E0
4.858872917E0,-8.779795300E-1,-8.542755756E-1,-5.674234548E0,5.804961027E0
4.868902917E0,-1.560941262E-1,-6.276167393E-2,-5.454835322E0,5.457429138E0
4.878931917E0,8.797754292E-1,1.802942169E-1,-4.933318065E0,5.014393078E0
4.888960917E0,1.786260940E0,9.906352758E-2,-4.382915563E0,4.733971964E0
4.898989917E0,1.786495121E0,-1.853114203E-1,-3.227950138E0,3.693990692E0
4.909018917E0,1.385827239E0,-3.479812521E-1,-1.682728677E0,2.207528911E0
4.919048917E0,1.017489710E0,-2.884235600E-1,-4.063206768E-1,1.132947462E0
4.929077917E0,5.932354036E-1,-4.899990106E-1,3.257267493E-1,8.355388618E-1
4.939106917E0,4.542203000E-1,-8.236589697E-1,4.291055220E-1,1.033857692E0
4.949135917E0,6.599427056E-1,-9.471124032E-1,4.404257315E-1,1.235524627E0
4.959164917E0,1.003170244E0,-7.032294238E-1,8.436286730E-1,1.487478235E0
4.969193917E0,1.255280549E0,-3.251969916E-1,1.489371196E0,1.974768062E0
4.979223917E0,9.208397669E-1,-3.161700600E-1,2.105435007E0,2.319647807E0
4.989252917E0,2.791523427E-1,-6.401856217E-1,2.250630142E0,2.356501580E0
4.999281917E0,-1.564051615E-1,-7.446177703E-1,2.143274678E0,2.274322876E0
5.009310917E0,-2.939757653E-1,-6.512128857E-1,1.968481522E0,2.094139316E0
5.019339917E0,9.830751915E-2,-4.384180900E-1,1.540329096E0,1.604521272E0
5.029368917E0,3.414230150E-1,-2.644274640E-1,6.797703946E-1,8.053442421E-1
5.039398917E0,2.639032794E-1,-2.366812563E-1,-5.951734632E-1,6.927441153E-1
5.049427917E0,2.751302441E-1,-2.922906160E-2,-2.033328897E0,2.052066615E0
5.059456917E0,1.891459877E-1,2.867731833E-1,-3.428114364E0,3.445284190E0
5.069485917E0,2.536347282E-1,7.160889128E-1,-4.452450067E0,4.516793719E0
5.079514917E0,4.381236462E-1,1.090088228E0,-5.054334379E0,5.189078983E0
5.089544917E0,6.737274434E-1,1.140660211E0,-4.978936288E0,5.152166626E0
5.099573917E0,3.571364203E-1,5.606240201E-1,-4.464906975E0,4.514115640E0
5.109602917E0,-5.258219042E-1,-9.160186645E-1,-3.898897085E0,4.039427849E0
5.119631917E0,-5.494091336E-2,-8.272681636E-1,-3.333506999E0,3.435063323E0
5.129660917E0,6.210105550E-1,-1.980378851E-1,-2.367609538E0,2.455697058E0
5.139689917E0,1.110762886E0,-1.051100163E0,-2.183615788E0,2.665855145E0
5.149719917E0,1.077477611E0,-9.673975638E-1,-1.861252357E0,2.358193458E0
5.159748917E0,5.761515936E-1,4.883413249E-1,-1.288643299E0,1.493663102E0
5.169777917E0,7.117175344E-1,1.005779564E-1,-1.340670655E0,1.521202018E0
5.179806917E0,4.929541203E-1,-8.062740281E-1,-1.780203516E0,2.015491536E0
5.189835917E0,2.119396403E-2,-8.936828855E-1,-1.925887479E0,2.123243007E0
5.199865917E0,2.342674160E-1,-9.768612823E-1,-2.855057409E0,3.026630469E0
5.209894917E0,-3.236606357E-1,-7.777805462E-1,-3.212289541E0,3.320918981E0
5.219923917E0,-6.696044985E-1,-6.069860083E-1,-3.699419323E0,3.808215530E0
5.229952917E0,-6.222726765E-1,-8.653113180E-1,-4.106601879E0,4.242660245E0
5.239981917E0,-2.498594186E-1,-1.423036581E0,-4.164215664E0,4.407738075E0
5.250010917E0,2.124731988E-3,-1.669172785E0,-4.476131290E0,4.777226562E0
5.260040917E0,1.003776345E-1,-1.332238970E0,-4.489955277E0,4.684510085E0
5.270069917E0,4.858478529E-1,-4.564164045E-1,-5.148052967E0,5.191032019E0
5.280098917E0,7.298867337E-1,7.424271110E-1,-5.815943574E0,5.908395071E0
5.290127917E0,6.203761321E-1,1.549406898E0,-6.216127013E0,6.436284901E0
5.300156917E0,6.828908343E-1,1.008438001E0,-5.904187998E0,6.028492599E0
5.310186917E0,2.220121125E0,-1.072889228E0,-5.369477084E0,5.908579631E0
5.320215917E0,-2.523313655E-1,-8.467054778E-1,-5.104368419E0,5.180266233E0
5.330244917E0,-2.418054053E0,1.200142767E0,-2.053372568E0,3.391705613E0
5.340273917E0,-3.153294643E0,1.891725706E0,7.938560039E-1,3.761927778E0
5.350302917E0,1.344169263E-1,3.864190936E-1,2.180087578E0,2.218145504E0
5.360331917E0,1.119108544E0,-7.271167615E-1,3.654446633E0,3.890511909E0
5.370361917E0,8.195569286E-1,3.511106819E-1,5.201335135E0,5.277199964E0
5.380390917E0,4.111458723E-1,1.832784749E0,6.416882392E0,6.686143918E0
5.390419917E0,-1.956141777E-1,1.815372764E0,8.327253115E0,8.525079918E0
5.400448917E0,-5.323233136E-1,9.514696021E-1,1.177967201E1,1.183001840E1
5.410477917E0,-9.759043124E-1,3.542351416E-1,1.580857902E1,1.584263369E1
5.420507917E0,-1.244667414E0,1.300675115E-1,1.848294343E1,1.852526146E1
5.430536917E0,-1.254516025E0,2.783021758E-1,1.934425700E1,1.938689097E1
5.440565917E0,-1.758218863E0,4.722816548E-1,2.003532305E1,2.011786652E1
5.450594917E0,-2.833475921E0,7.215477271E-1,2.186157456E1,2.205623855E1
5.460623917E0,-3.185307272E0,1.113122165E0,2.397629962E1,2.421256217E1
5.470652917E0,-2.426177151E0,1.095247665E0,2.499639785E1,2.513773674E1
5.480682917E0,-1.655756056E0,7.582659025E-1,2.506595165E1,2.513201996E1
5.490711917E0,-1.698403455E0,5.215131640E-3,2.341765430E1,2.347916384E1
5.500740917E0,-2.120472291E0,-2.829464731E-1,2.018449020E1,2.029753941E1
5.510769917E0,-1.812723683E0,3.470258170E-1,1.626983779E1,1.637418749E1
5.520798917E0,-7.897921159E-1,9.297838873E-1,1.216198870E1,1.222302086E1
5.530826083E0,6.679134838E-1,1.508657945E0,8.161455899E0,8.326555087E0
5.540855083E0,1.847309672E0,2.144651697E0,4.965221059E0,5.715374361E0
5.550884083E0,2.427718623E0,2.708043789E0,2.905865620E0,4.655252289E0
5.560913083E0,2.679339808E0,2.801365936E0,2.168714744E0,4.441828064E0
5.570942083E0,2.514513815E0,2.307390819E0,2.448697556E0,4.200351394E0
5.580972083E0,1.581370995E0,1.836851926E0,3.129673646E0,3.958486624E0
5.591001083E0,-2.932098714E-1,1.692829158E0,3.764493570E0,4.138001260E0
5.601030083E0,-1.362287811E0,2.356333475E0,3.740239320E0,4.625745961E0
5.611059083E0,-1.624405333E0,1.545693331E0,2.746640675E0,3.545686895E0
5.621088083E0,-2.956301802E-1,1.375068947E0,4.130730414E-1,1.465892612E0
5.631117083E0,1.122144491E0,1.990921089E0,-2.535443339E0,3.413421739E0
5.641147083E0,1.590266656E0,1.648580938E0,-5.070159869E0,5.563567942E0
5.651176083E0,1.302614636E0,6.636101523E-1,-6.673309110E0,6.831561886E0
5.661205083E0,5.733392291E-2,-4.266496915E-1,-7.471530061E0,7.483921338E0
5.671234083E0,-2.772051797E0,-1.133688284E0,-9.215093170E0,9.689554294E0
5.681263083E0,-3.590800860E0,-1.769154618E0,-9.749509385E0,1.053929277E1
5.691293083E0,-1.940891581E0,-2.482051828E0,-7.186933211E0,7.847270251E0
5.701322083E0,-2.325125424E0,-3.354836765E0,-7.258363382E0,8.327363145E0
5.711351083E0,-2.352269661E0,-4.337373647E0,-8.594543375E0,9.910204768E0
5.721380083E0,-2.504052269E0,-4.596645036E0,-1.041563706E1,1.165696867E1
5.731409083E0,-2.089001261E0,-4.384239373E0,-1.173958701E1,1.270446317E1
5.741438083E0,-1.310634385E0,-4.191086544E0,-1.220250757E1,1.296858357E1
5.751468083E0,-5.817358308E-1,-4.196850729E0,-1.206688023E1,1.278911925E1
5.761497083E0,-1.827049508E-1,-4.307132140E0,-1.127045905E1,1.206681464E1
5.771526083E0,-3.668967754E-1,-4.490869782E0,-1.039524548E1,1.132976845E1
5.781555083E0,-7.821302900E-1,-4.525550787E0,-9.557193877E0,1.060340948E1
5.791584083E0,-1.283452434E0,-4.504416319E0,-8.973406112E0,1.012220499E1
5.801614083E0,-1.866922402E0,-4.534057609E0,-8.658783810E0,9.950759505E0
5.811643083E0,-2.131761510E0,-4.467779127E0,-8.434158343E0,9.779595310E0
5.821672083E0,-2.293887551E0,-4.264758830E0,-8.259386821E0,9.574317659E0
5.831701083E0,-2.362175429E0,-4.017443242E0,-8.021012211E0,9.276656718E0
5.841730083E0,-2.066819410E0,-3.746893744E0,-7.612934446E0,8.733139532E0
5.851760083E0,-1.353602649E0,-3.516497659E0,-7.287036958E0,8.203590894E0
5.861789083E0,-6.710122157E-1,-3.340385664E0,-7.278347996E0,8.036341414E0
5.871818083E0,-1.449348613E-1,-3.216464453E0,-7.317093401E0,7.994154460E0
5.881847083E0,2.090631026E-1,-3.046891106E0,-7.177368336E0,7.800119808E0
5.891876083E0,2.743208067E-1,-2.987515847E0,-6.991991134E0,7.608445496E0
5.901905083E0,1.682396702E-1,-2.959711459E0,-7.024619182E0,7.624530882E0
5.911935083E0,1.872885101E-1,-2.871886280E0,-7.199950283E0,7.753843683E0
5.921964083E0,2.175745290E-1,-2.803951867E0,-7.315750880E0,7.837709850E0
5.931993083E0,2.745921906E-2,-2.905684356E0,-7.356662094E0,7.909755543E0
5.942022083E0,-3.334446720E-1,-3.116660960E0,-7.458849204E0,8.090685530E0
5.952051083E0,-5.806877904E-1,-3.448972551E0,-7.464618652E0,8.243369553E0
5.962081083E0,-4.852415332E-1,-3.750973054E0,-7.221775600E0,8.152257418E0
5.972110083E0,-4.635058977E-1,-3.982415205E0,-6.979344192E0,8.048957319E0
5.982139083E0,-4.886592307E-1,-4.204270846E0,-7.056888211E0,8.228873095E0
5.992168083E0,-3.211388412E-1,-4.336627834E0,-7.336333079E0,8.528262084E0
6.002197083E0,-5.552168805E-2,-4.222231153E0,-7.636767697E0,8.726427644E0
6.012226083E0,9.174537174E-3,-3.992109888E0,-7.904031061E0,8.854983486E0
6.022256083E0,8.711481549E-2,-3.678810226E0,-8.136326321E0,8.929783854E0
6.032285083E0,3.384840948E-1,-3.378993074E0,-8.400261449E0,9.060715098E0
6.042314083E0,4.993686620E-1,-3.164433004E0,-8.641453832E0,9.216166754E0
6.052343083E0,4.002692471E-1,-3.122698503E0,-8.571441026E0,9.131323161E0
6.062372083E0,-5.258084464E-2,-3.278213974E0,-7.933831980E0,8.584587439E0
6.072402083E0,-9.350075705E-1,-3.469422019E0,-6.762330045E0,7.657691293E0
6.082431083E0,-1.863920003E0,-3.336102578E0,-5.324226651E0,6.553714033E0
6.092460083E0,-2.751090406E0,-2.435902678E0,-3.941888738E0,5.388933763E0
6.102489083E0,-3.886512974E0,-4.612172610E-1,-2.294730427E0,4.536903371E0
6.112518083E0,-4.641501951E0,2.725476093E0,-4.522213197E-1,5.401505755E0
6.122548083E0,-4.966458914E0,5.933619373E0,1.006067832E0,7.802930571E0
6.132577083E0,-4.099543413E0,7.511479992E0,2.115114487E0,8.814890649E0
6.142606083E0,-2.368276706E0,7.714595307E0,2.799568502E0,8.541738646E0
6.152635083E0,-2.126389089E0,7.853919253E0,3.644902223E0,8.915766395E0
6.162664083E0,-2.089062949E0,7.696934962E0,5.143636565E0,9.490204894E0
6.172693083E0,-8.288571444E-1,6.269674060E0,8.030851321E0,1.022205410E1
6.182723083E0,1.030191982E0,4.994977539E0,1.231056762E1,1.332520811E1
6.192752083E0,3.124290992E0,4.746997416E0,1.764155248E1,1.853428047E1
6.202781083E0,4.933475356E0,4.446953684E0,2.269482150E1,2.364676509E1
6.212810083E0,5.994202960E0,3.590629244E0,2.589641531E1,2.682251691E1
6.222839083E0,5.997864486E0,3.083102035E0,2.746861232E1,2.828435185E1
6.232869083E0,4.141235814E0,3.171979128E0,2.748188550E1,2.797258151E1
6.242898083E0,1.862159114E0,3.460733348E0,2.663584251E1,2.692419763E1
6.252927083E0,4.449814069E-1,3.294666284E0,2.536012741E1,2.557711666E1
6.262956083E0,-5.969404187E-1,3.355725249E0,2.286035384E1,2.311304842E1
6.272985083E0,-1.531984973E0,3.882809055E0,1.854501981E1,1.900897009E1
6.283015083E0,-1.728921827E0,4.402673889E0,1.330285064E1,1.411873023E1
6.293044083E0,-1.131777268E0,4.700173497E0,8.583138381E0,9.851031173E0
6.303073083E0,-3.531173001E-1,4.778539636E0,4.798038054E0,6.780877675E0
6.313102083E0,3.419482046E-1,4.735613472E0,1.855138509E0,5.097499624E0
6.323131083E0,7.905960350E-1,4.293637351E0,-8.506763220E-2,4.366646344E0
6.333160083E0,1.037395533E0,3.425408565E0,-8.858262742E-1,3.687045092E0
6.343190083E0,1.205995245E0,2.428213590E0,-1.065542786E0,2.913078646E0
6.353219083E0,1.391715386E0,1.486920336E0,-1.254514856E0,2.391988989E0
6.363248083E0,1.361151697E0,5.927100313E-1,-1.522846506E0,2.126758238E0
6.373277083E0,1.122524195E0,-2.586284879E-1,-2.006374403E0,2.313544360E0
6.383306083E0,1.011459184E0,-9.720200801E-1,-2.660418218E0,3.007606658E0
6.393336083E0,1.053287095E0,-1.466483440E0,-3.438047029E0,3.883317494E0
6.403365083E0,1.134212121E0,-1.810534486E0,-4.343277873E0,4.840303187E0
6.413394083E0,1.058651404E0,-2.127184895E0,-5.236844691E0,5.750669586E0
6.423423083E0,7.922918737E-1,-2.518318306E0,-6.012970768E0,6.566998626E0
6.433452083E0,4.137524514E-1,-2.932804619E0,-6.778549637E0,7.397382591E0
6.443482083E0,1.057663279E-1,-3.217519583E0,-7.621033425E0,8.273074957E0
6.453511083E0,-1.845833688E-1,-3.408368024E0,-8.238009986E0,8.917166149E0
6.463540083E0,-5.407785702E-1,-3.540665371E0,-8.309807947E0,9.048848592E0
6.473569083E0,-8.862718320E-1,-3.516241259E0,-7.852869678E0,8.649681643E0
6.483598083E0,-9.782600825E-1,-3.544002962E0,-6.918594545E0,7.834787824E0
6.493628083E0,-9.669912554E-1,-3.495913998E0,-5.980890604E0,6.994822313E0
6.503657083E0,-8.740509320E-1,-3.216000476E0,-5.409279665E0,6.353497509E0
6.513686083E0,-8.706594007E-1,-2.831098443E0,-4.922456278E0,5.744888336E0
6.523715083E0,-8.211076833E-1,-2.399062589E0,-4.193635930E0,4.900642962E0
6.533744292E0,-7.876855834E-1,-1.778571851E0,-3.462940380E0,3.971866373E0
6.543773292E0,-8.573743806E-1,-1.125143748E0,-3.128291949E0,3.433256442E0
6.553803292E0,-7.097588633E-1,-5.672886765E-1,-2.950696222E0,3.087423243E0
6.563832292E0,-6.850674603E-1,-2.582919806E-2,-2.564218072E0,2.654279355E0
6.573861292E0,-8.358588928E-1,4.069191393E-1,-2.032382233E0,2.234909577E0
6.583890292E0,-9.009003230E-1,6.198343876E-1,-1.629623680E0,1.962521184E0
6.593919292E0,-8.321080501E-1,5.676930115E-1,-1.563252520E0,1.859687502E0
6.603949292E0,-2.009242900E-1,3.176380035E-1,-1.536772819E0,1.582066740E0
6.613978292E0,5.800236198E-1,4.580124021E-2,-8.991321981E-1,1.070963988E0
6.624007292E0,1.187951030E0,-4.907421917E-2,4.684017348E-1,1.277903014E0
6.634036292E0,1.825008245E0,-1.761561424E-2,1.971787537E0,2.686803211E0
6.644065292E0,2.201819194E0,-3.250467181E-2,2.998655670E0,3.720349465E0
6.654095292E0,2.133917964E0,-2.002264979E-1,3.486749657E0,4.092813177E0
6.664124292E0,1.629966473E0,-3.646545875E-1,3.359938168E0,3.752192448E0
6.674153292E0,7.845236284E-1,-3.566421479E-1,2.432431186E0,2.580579862E0
6.684182292E0,-1.463022692E-1,-1.450542176E-1,8.607013732E-1,8.850152167E-1
6.694211292E0,-8.283211009E-1,1.174500972E-2,-8.282732999E-1,1.171448015E0
6.704241292E0,-1.038551015E0,1.544667730E-1,-2.142104065E0,2.385593851E0
6.714270292E0,-1.071673665E0,3.328831565E-1,-2.807639413E0,3.023596322E0
6.724299292E0,-1.083158473E0,3.027045071E-1,-2.851654329E0,3.065419174E0
6.734328292E0,-9.219555619E-1,1.920427349E-1,-2.579058890E0,2.745619644E0
6.744357292E0,-8.542853697E-1,6.539204389E-2,-1.976327900E0,2.154054684E0
6.754387292E0,-8.234982444E-1,-1.277967453E-2,-1.200795316E0,1.456098235E0
6.764416292E0,-6.054068946E-1,2.466297090E-2,-3.945490623E-1,7.230454569E-1
6.774445292E0,-3.177333131E-1,6.479942858E-2,2.633170778E-1,4.177191732E-1
6.784474292E0,-2.322878412E-1,-5.484483629E-2,4.995697331E-1,5.536564959E-1
6.794503292E0,-1.283762409E-1,-1.375411302E-1,2.555677629E-1,3.173529630E-1
6.804532292E0,4.800889302E-2,-8.992111355E-2,-2.208844185E-1,2.432706041E-1
6.814562292E0,2.883699118E-1,8.933171421E-2,-6.550302404E-1,7.212502874E-1
6.824591292E0,3.706133023E-1,3.028971729E-1,-9.334541845E-1,1.049017460E0
6.834620292E0,2.551880593E-1,3.634526923E-1,-9.923093337E-1,1.087150688E0
6.844649292E0,8.173464619E-2,2.077270138E-1,-7.720581686E-1,8.036820767E-1
6.854678292E0,-1.298013170E-1,9.074586332E-3,-3.091042846E-1,3.353746991E-1
6.864708292E0,-3.132140367E-1,-7.637457669E-2,1.667684376E-1,3.629708260E-1
6.874737292E0,-5.013829182E-1,-4.640584230E-2,4.092635804E-1,6.488721069E-1
6.884766292E0,-4.999067155E-1,4.791822463E-2,3.430678368E-1,6.081927499E-1
6.894795292E0,-4.403170830E-1,1.908537036E-1,-3.381093979E-2,4.810898558E-1
6.904824292E0,-2.405649404E-1,3.670493147E-1,-5.667273438E-1,7.167820953E-1
6.914854292E0,7.814091090E-2,5.604676071E-1,-1.065849765E0,1.206758328E0
6.924883292E0,3.857662885E-1,6.945232120E-1,-1.616827049E0,1.801473793E0
6.934912292E0,4.842953075E-1,7.325982338E-1,-1.994708038E0,2.179472935E0
6.944941292E0,4.781302591E-1,6.066217268E-1,-2.155977169E0,2.290160697E0
6.954970292E0,3.686860234E-1,3.863454187E-1,-2.162329584E0,2.227299126E0
6.965000292E0,2.236371049E-1,1.510856205E-1,-2.158031881E0,2.174842987E0
6.975029292E0,7.983324129E-2,-1.102512977E-1,-2.279323599E0,2.283384497E0
6.985058292E0,-3.339151170E-2,-2.928972647E-1,-2.480757839E0,2.498212012E0
6.995087292E0,-1.014460852E-1,-4.365475658E-1,-2.731704547E0,2.768225934E0
7.005116292E0,-1.268919252E-1,-5.881997815E-1,-2.909595559E0,2.971165909E0
7.015146292E0,-1.944447346E-1,-7.630727524E-1,-3.008752057E0,3.110092880E0
7.025175292E0,-2.854550748E-1,-9.507911789E-1,-3.099637084E0,3.254725567E0
7.035204292E0,-2.990294224E-1,-1.123249250E0,-3.129591785E0,3.338480525E0
7.045233292E0,-1.272141068E-1,-1.286404400E0,-3.177198645E0,3.430103634E0
7.055262292E0,3.026957363E-2,-1.332453270E0,-3.221147488E0,3.485991839E0
7.065291292E0,1.724947255E-1,-1.289943135E0,-3.314745038E0,3.561073208E0
7.075321292E0,2.060922054E-1,-1.149454131E0,-3.433665125E0,3.626813338E0
7.085350292E0,7.009912558E-2,-9.655653387E-1,-3.415049930E0,3.549619181E0
7.095379292E0,-1.227826482E-1,-8.813449681E-1,-3.200002202E0,3.321424186E0
7.105408292E0,-2.593187882E-1,-8.090087709E-1,-2.954557139E0,3.074272160E0
7.115437292E0,-4.426267331E-1,-7.943173492E-1,-2.742028391E0,2.888871436E0
7.125467292E0,-6.930897671E-1,-8.424817416E-1,-2.740537351E0,2.949693863E0
7.135496292E0,-8.181337894E-1,-9.333749548E-1,-2.854555133E0,3.112718540E0
7.145525292E0,-7.110851580E-1,-1.036475692E0,-2.733360479E0,3.008518484E0
7.155554292E0,-3.498795872E-1,-1.178247575E0,-2.093471603E0,2.427613319E0
7.165583292E0,1.829854344E-1,-1.220282916E0,-1.076661851E0,1.637612533E0
7.175613292E0,6.169520026E-1,-1.182430674E0,8.766847372E-2,1.336584390E0
7.185642292E0,8.795360588E-1,-1.089552915E0,9.540837461E-1,1.694398132E0
7.195671292E0,8.532359406E-1,-9.643988192E-1,1.294190553E0,1.825652168E0
7.205700292E0,5.498549472E-1,-7.508801383E-1,9.088730747E-1,1.300850380E0
7.215729292E0,7.434840683E-2,-6.074099314E-1,-1.676040047E-1,6.344805850E-1
7.225759292E0,-3.311790952E-1,-4.492029870E-1,-1.015566634E0,1.158809089E0
7.235788292E0,-5.847076050E-1,-1.357127059E-1,-1.317650167E0,1.447930552E0
7.245817292E0,-6.467629353E-1,1.465183604E-1,-9.942886162E-1,1.195148433E0
7.255846292E0,-7.357992920E-1,1.922447562E-1,-2.714002687E-1,8.074755416E-1
7.265875292E0,-7.864857347E-1,6.004213393E-2,7.188280410E-1,1.067182562E0
7.275905292E0,-8.118493482E-1,2.456239879E-2,1.639718898E0,1.829858120E0
7.285934292E0,-6.088118745E-1,1.919371927E-1,2.346519216E0,2.431798556E0
7.295963292E0,1.968790401E-2,5.712758929E-1,2.929950301E0,2.985188859E0
7.305992292E0,6.974305207E-1,1.131029555E0,3.347453778E0,3.601539113E0
7.316021292E0,9.815279451E-1,1.726898837E0,3.309398344E0,3.859753114E0
7.326051292E0,8.543673038E-1,2.057186707E0,2.959411497E0,3.704062236E0
7.336080292E0,4.540208003E-1,2.316258121E0,3.041009976E0,3.849536108E0
7.346109292E0,1.267685307E-1,2.598518131E0,3.941937854E0,4.723054180E0
7.356138292E0,-1.279181116E-1,2.564179772E0,5.287699680E0,5.878022529E0
7.366167292E0,-3.943514995E-1,2.299746754E0,6.645045424E0,7.042796101E0
7.376197292E0,-5.425597417E-1,2.071380530E0,8.054102190E0,8.333879676E0
7.386226292E0,-6.225553163E-1,1.946391033E0,9.582631019E0,9.798103410E0
7.396255292E0,-6.837649930E-1,2.004134919E0,1.065439173E1,1.086278761E1
7.406284292E0,-3.854319374E-1,2.225519859E0,1.078373682E1,1.101773463E1
7.416313292E0,1.270200797E-1,2.690662356E0,1.034910861E1,1.069391635E1
7.426342292E0,6.499711563E-1,3.291824245E0,9.592709865E0,1.016261049E1
7.436372292E0,1.129764729E0,3.739252602E0,9.024359919E0,9.833486173E0
7.446401292E0,1.305767309E0,3.895008686E0,9.034166284E0,9.924327755E0
7.456430292E0,1.101293247E0,3.833603274E0,9.694355523E0,1.048283787E1
7.466459292E0,9.477847599E-1,3.535481230E0,1.039972210E1,1.102506886E1
7.476488292E0,8.724771539E-1,3.189352960E0,1.101944978E1,1.150484516E1
7.486518292E0,8.937851387E-1,2.851030431E0,1.141586995E1,1.180039462E1
7.496547292E0,1.026017216E0,2.599143198E0,1.153474034E1,1.186838200E1
7.506576292E0,1.069312413E0,2.438815176E0,1.130756782E1,1.161689884E1
7.516605292E0,8.870256112E-1,2.210463571E0,1.055867983E1,1.082398648E1
7.526634917E0,8.979579310E-1,2.084010224E0,9.225745627E0,9.500726785E0
7.536664917E0,9.694451125E-1,2.014447069E0,7.786254104E0,8.100837845E0
7.546693917E0,8.971089153E-1,1.592798793E0,6.495354949E0,6.747699483E0
7.556722917E0,8.103822087E-1,6.922460139E-1,5.582211653E0,5.683045909E0
7.566751917E0,6.823360797E-1,-2.383313406E-1,5.509798565E0,5.557001402E0
7.576780917E0,4.706280256E-1,-8.738865522E-1,5.721417485E0,5.806874072E0
7.586810917E0,4.240424180E-1,-1.137244560E0,5.184543101E0,5.324718240E0
7.596839917E0,4.737319104E-1,-5.883927396E-1,3.980644668E0,4.051686058E0
7.606868917E0,6.097586483E-1,6.574552269E-1,2.278075803E0,2.448199818E0
7.616897917E0,8.115367415E-1,1.988963002E0,8.506295443E-2,2.149837532E0
7.626926917E0,1.554290200E0,2.833557782E0,-2.193183002E0,3.905754653E0
7.636956917E0,2.021086290E0,3.023066041E0,-3.491635591E0,5.041352713E0
7.646985917E0,1.859868906E0,2.549954666E0,-3.475811271E0,4.694959546E0
7.657014917E0,1.603230226E0,1.631246429E0,-2.419879553E0,3.329734092E0
7.667043917E0,1.537086230E0,7.595913202E-1,-1.206223286E0,2.096327185E0
7.677072917E0,1.021526847E0,2.132975100E-1,-1.952917403E-1,1.061674051E0
7.687102917E0,8.288135827E-2,1.447372985E-1,2.105822092E-1,2.686318521E-1
7.697131917E0,-7.703730011E-1,3.497928657E-1,-6.724859333E-1,1.080771456E0
7.707160917E0,-8.452929367E-1,5.661056386E-1,-2.399072236E0,2.605867099E0
7.717189917E0,-2.302629139E-1,5.871934757E-1,-4.415533086E0,4.460353083E0
7.727218917E0,5.270153940E-2,3.706862828E-1,-6.222633795E0,6.233887801E0
7.737248917E0,-5.124542921E-1,1.667174207E-1,-7.806816423E0,7.825393713E0
7.747277917E0,-1.550056524E0,5.005362779E-3,-8.792887947E0,8.928470122E0
7.757306917E0,-2.884944575E0,-9.601752292E-1,-8.575448123E0,9.098524726E0
7.767335917E0,-4.258538562E0,-2.451547342E0,-7.298171811E0,8.798212707E0
7.777364917E0,-5.377081972E0,-3.643420538E0,-5.878457910E0,8.760353370E0
7.787394917E0,-6.041266029E0,-4.016748301E0,-5.203786288E0,8.928076718E0
7.797423917E0,-5.870292274E0,-3.941444349E0,-5.219812921E0,8.788729252E0
7.807452917E0,-4.717406411E0,-3.782292495E0,-5.543327084E0,8.202934532E0
7.817481917E0,-3.181124466E0,-3.264573589E0,-5.877462130E0,7.437846104E0
7.827510917E0,-2.035009533E0,-2.556601781E0,-6.276425840E0,7.076086333E0
7.837540917E0,-1.156953039E0,-2.030677185E0,-6.817171081E0,7.206664395E0
7.847569917E0,-6.470847514E-1,-1.714958822E0,-7.385647327E0,7.609703600E0
7.857598917E0,-8.183358108E-1,-1.536666400E0,-7.918870710E0,8.107991764E0
7.867627917E0,-1.353199191E0,-1.601816954E0,-8.324968023E0,8.584990284E0
7.877656917E0,-1.822250406E0,-1.835803228E0,-8.598786700E0,8.979415501E0
7.887686917E0,-2.083498154E0,-2.049313723E0,-8.827923878E0,9.299080132E0
7.897715917E0,-2.107765999E0,-2.179445846E0,-8.943908663E0,9.443842644E0
7.907744917E0,-1.972806853E0,-2.293853053E0,-8.662092749E0,9.175269996E0
7.917773917E0,-1.714342234E0,-2.318693779E0,-8.217373992E0,8.708647740E0
7.927802917E0,-1.323470924E0,-2.307855380E0,-7.849201135E0,8.287806115E0
7.937832917E0,-8.341797186E-1,-2.348331268E0,-7.762987449E0,8.153188927E0
7.947861917E0,-3.290726723E-1,-2.372166858E0,-7.868027415E0,8.224434317E0
7.957890917E0,4.704523534E-3,-2.295053778E0,-7.945300124E0,8.270132287E0
7.967919917E0,6.965612590E-2,-2.309313091E0,-8.099856067E0,8.422912040E0
7.977948917E0,-2.120752957E-1,-2.494050022E0,-8.258551254E0,8.629538242E0
7.987978917E0,-6.434609395E-1,-2.821611628E0,-8.312895277E0,8.802258917E0
7.998007917E0,-1.047316723E0,-3.135465313E0,-8.320508351E0,8.953148847E0
8.008036917E0,-1.242126798E0,-3.331451410E0,-8.553863711E0,9.263370438E0
8.018065917E0,-1.257552484E0,-3.393669293E0,-8.823996888E0,9.537366020E0
8.028094917E0,-1.004562613E0,-3.437088670E0,-8.985083002E0,9.672354477E0
8.038124917E0,-5.466189884E-1,-3.354695847E0,-9.037495104E0,9.655521441E0
8.048153917E0,-4.620768747E-1,-3.249248621E0,-8.832740230E0,9.422761358E0
8.058182917E0,-6.118322537E-1,-3.276974656E0,-8.558756661E0,9.185054011E0
8.068211917E0,-7.932731096E-1,-3.450717945E0,-8.108807570E0,8.848135214E0
8.078240917E0,-1.009956815E0,-3.546707884E0,-7.633511383E0,8.477596689E0
8.088270917E0,-1.183269018E0,-3.366828527E0,-7.535330200E0,8.337677202E0
8.098299917E0,-1.233493823E0,-3.113710455E0,-7.779471919E0,8.469762874E0
8.108328917E0,-1.214460771E0,-2.848785393E0,-7.879067543E0,8.465825331E0
8.118357917E0,-1.324074503E0,-2.391260064E0,-7.287055669E0,7.782832281E0
8.128386917E0,-1.499979799E0,-1.242210267E0,-5.658518402E0,5.984300816E0
8.138416917E0,-1.648313720E0,6.544156981E-1,-3.089648286E0,3.562460464E0
8.148445917E0,-2.418255782E0,3.046772700E0,1.989778250E-1,3.894916826E0
8.158474917E0,-2.722668845E0,5.317620467E0,3.343886392E0,6.846282880E0
8.168503917E0,-1.265774693E0,6.686530834E0,5.477500300E0,8.735839382E0
8.178532917E0,3.590875266E-1,6.917806925E0,7.813275257E0,1.044185169E1
8.188562917E0,3.914889950E-1,6.712189001E0,8.306795461E0,1.068688896E1
8.198591917E0,-2.659516139E-1,5.446517658E0,7.248647064E0,9.070731455E0
8.208620917E0,-3.854817849E-1,3.025805169E0,6.013592911E0,6.742951344E0
8.218649917E0,-1.657541650E-1,2.298979599E0,6.757642917E0,7.139924330E0
8.228678917E0,2.680835087E-1,2.748101310E0,1.148369064E1,1.181097287E1
8.238708917E0,1.255020348E0,1.944131377E0,1.884663322E1,1.898816228E1
8.248737917E0,2.679464938E0,5.222689167E-1,2.653038447E1,2.667046301E1
8.258766917E0,3.311979890E0,-2.051387438E-1,3.098946177E1,3.116661729E1
8.268795917E0,2.207623579E0,-3.144825536E-1,2.964886830E1,2.973260655E1
8.278824917E0,4.362060153E-1,4.078894848E-1,2.351523965E1,2.352282180E1
8.288854917E0,-9.963975607E-1,1.371162130E0,1.688824400E1,1.697308690E1
8.298883917E0,-1.528919862E0,2.323181809E0,1.238410805E1,1.269255301E1
8.308912917E0,-8.788898684E-1,3.267698926E0,1.033847135E1,1.087815672E1
8.318941917E0,3.859863997E-1,4.093512010E0,9.417448347E0,1.027590188E1
8.328970917E0,1.338299901E0,4.591513520E0,8.280908083E0,9.562765380E0
8.339000917E0,1.451569239E0,4.636963634E0,6.604669231E0,8.199398798E0
8.349029917E0,1.071880218E0,4.377155471E0,4.672615278E0,6.491667794E0
8.359058917E0,6.822842588E-1,4.012535382E0,2.698752564E0,4.883566054E0
8.369087917E0,3.434844509E-1,3.571217950E0,1.172039294E0,3.774288717E0
8.379116917E0,2.765630677E-1,3.091267380E0,3.192053497E-1,3.119986089E0
8.389146917E0,4.443642698E-1,2.599958593E0,1.439923632E-1,2.641586283E0
8.399175917E0,5.747646341E-1,2.075291440E0,3.453353870E-1,2.180927664E0
8.409204917E0,6.336189061E-1,1.493785551E0,5.903366464E-1,1.726663125E0
8.419233917E0,7.732596253E-1,9.200327781E-1,7.904073161E-1,1.438448639E0
8.429262917E0,9.970045017E-1,4.845888743E-1,9.569143832E-1,1.464421213E0
8.439292917E0,1.120222512E0,1.667789626E-1,1.029104108E0,1.530283948E0
8.449321917E0,1.019504441E0,-2.159984851E-1,7.646608561E-1,1.292575288E0
8.459350917E0,7.760321557E-1,-6.304105389E-1,-6.925442219E-3,9.998456461E-1
8.469379917E0,6.021777698E-1,-9.308659145E-1,-1.084415259E0,1.550833928E0
8.479408917E0,4.082077195E-1,-1.159184483E0,-2.511871458E0,2.796397760E0
8.489438917E0,1.808665862E-1,-1.424745722E0,-4.056781847E0,4.303497653E0
8.499467917E0,-1.483982402E-1,-1.600745159E0,-5.464955099E0,5.696502553E0
8.509496917E0,-4.386523441E-1,-1.693008083E0,-6.642946858E0,6.869311116E0
8.519525917E0,-7.109246519E-1,-1.829080392E0,-7.353164874E0,7.610517894E0
8.529554208E0,-8.936206126E-1,-2.028564294E0,-7.637470533E0,7.952646543E0
8.539584208E0,-1.064489703E0,-2.194529909E0,-7.287135192E0,7.684493422E0
8.549613208E0,-1.117254026E0,-2.278758173E0,-6.354847527E0,6.842885536E0
8.559642208E0,-1.070857320E0,-2.384722584E0,-5.526043299E0,6.113165445E0
8.569671208E0,-9.245536260E-1,-2.453882574E0,-4.944257036E0,5.596607610E0
8.579700208E0,-8.487480564E-1,-2.428064486E0,-4.406962822E0,5.102665159E0
8.589730208E0,-9.389766604E-1,-2.368954983E0,-4.145541996E0,4.866122000E0
8.599759208E0,-9.276107696E-1,-2.160501745E0,-4.076387562E0,4.705864966E0
8.609788208E0,-8.963614950E-1,-1.797070395E0,-4.085532607E0,4.552417228E0
8.619817208E0,-5.954612924E-1,-1.386020490E0,-4.173420351E0,4.437686827E0
8.629846208E0,-8.553095095E-2,-9.794659245E-1,-4.111600079E0,4.227519870E0
8.639876208E0,2.161902007E-1,-6.670067999E-1,-3.786422968E0,3.850796692E0
8.649905208E0,3.162873698E-1,-5.264008516E-1,-3.351035782E0,3.406842581E0
8.659934208E0,2.991543701E-1,-5.426613736E-1,-2.657690492E0,2.728972967E0
8.669963208E0,2.830605669E-1,-5.670954260E-1,-1.799185333E0,1.907560843E0
8.679992208E0,3.424725902E-1,-5.650743359E-1,-1.063012111E0,1.251635422E0
8.690022208E0,3.607354912E-1,-5.466284171E-1,-4.453578579E-1,7.920077920E-1
8.700051208E0,3.711946251E-1,-4.662791955E-1,1.384205514E-1,6.118512785E-1
8.710080208E0,3.939133968E-1,-3.398144460E-1,7.670184535E-1,9.268003722E-1
8.720109208E0,4.777838847E-1,-1.700966728E-1,1.383873392E0,1.473877839E0
8.730139208E0,5.534534334E-1,1.040102720E-1,1.825628781E0,1.910510216E0
8.740168208E0,6.600035166E-1,3.290886059E-1,1.787740577E0,1.933887361E0
8.750197208E0,8.930986755E-1,4.579434049E-1,1.324563330E0,1.661868052E0
8.760226208E0,1.072028810E0,5.447210553E-1,8.733693659E-1,1.486183315E0
8.770255208E0,9.115584084E-1,4.399412897E-1,7.440581918E-1,1.256228348E0
8.780285208E0,5.936210640E-1,1.783792537E-1,8.416026127E-1,1.045227288E0
8.790314208E0,3.771008977E-1,-1.321444425E-1,1.025403990E0,1.100509238E0
8.800343208E0,1.070677445E-1,-4.033248559E-1,1.159226875E0,1.232047641E0
8.810372208E0,-1.067501676E-1,-5.366934130E-1,1.136806896E0,1.261651829E0
8.820401208E0,-2.296903984E-1,-6.037226772E-1,9.323800510E-1,1.134271268E0
8.830431208E0,-2.776227659E-1,-6.277371919E-1,5.424304086E-1,8.748480614E-1
8.840460208E0,-3.440841925E-1,-5.668331784E-1,4.063347101E-2,6.643379130E-1
8.850489208E0,-3.889166952E-1,-3.710166505E-1,-6.912549108E-1,8.756385684E-1
8.860518208E0,-3.942666052E-1,-1.035112122E-1,-1.714207163E0,1.762006505E0
8.870547208E0,-3.096984348E-1,1.696546233E-1,-2.758688278E0,2.781197014E0
8.880577208E0,-2.769208077E-1,3.413870546E-1,-3.491472453E0,3.519035400E0
8.890606208E0,-2.105367471E-1,3.666104811E-1,-3.942330787E0,3.964933922E0
8.900635208E0,-1.581752599E-1,3.883843428E-1,-4.013130628E0,4.034981939E0
8.910664208E0,-2.188369794E-1,3.237053668E-1,-3.717664390E0,3.738141691E0
8.920693208E0,-2.841203747E-1,1.371663237E-1,-3.323060364E0,3.338003770E0
8.930723208E0,-2.485877223E-1,-7.622722685E-2,-2.956712422E0,2.968123110E0
8.940752208E0,-2.012708472E-1,-2.760107982E-1,-2.709557633E0,2.731006130E0
8.950781208E0,-1.935970710E-1,-4.165942347E-1,-2.326561500E0,2.371480338E0
8.960810208E0,-5.106526919E-2,-5.514164096E-1,-1.692780626E0,1.781059787E0
8.970839208E0,2.386443128E-1,-7.693017912E-1,-9.864597791E-1,1.273530231E0
8.980869208E0,4.448234955E-1,-9.857452494E-1,-4.288347960E-1,1.163383394E0
8.990898208E0,5.689176377E-1,-1.026826325E0,-2.199617279E-1,1.194329411E0
9.000927208E0,6.741025423E-1,-9.375489897E-1,-3.592505908E-1,1.209327637E0
9.010956208E0,6.795977555E-1,-8.263036653E-1,-8.214045757E-1,1.348827763E0
9.020985208E0,5.754788715E-1,-7.382545379E-1,-1.587712008E0,1.843102036E0
9.031015208E0,3.177360175E-1,-7.417014715E-1,-2.300158398E0,2.437581979E0
9.041044208E0,2.406092696E-2,-8.504541278E-1,-2.720646878E0,2.850573729E0
9.051073208E0,-2.707146095E-1,-9.158049488E-1,-2.807664557E0,2.965630686E0
9.061102208E0,-5.727575042E-1,-9.402591741E-1,-2.933201353E0,3.133019095E0
9.071131208E0,-7.885252436E-1,-9.531648561E-1,-3.359581488E0,3.580095400E0
9.081161208E0,-8.656046290E-1,-8.661863539E-1,-3.847469653E0,4.037644475E0
9.091190208E0,-9.432107024E-1,-7.148536885E-1,-4.345317966E0,4.503604163E0
9.101219208E0,-9.024662074E-1,-5.467172948E-1,-4.732129408E0,4.848339282E0
9.111248208E0,-6.400431689E-1,-3.206054655E-1,-4.921172814E0,4.972965412E0
9.121278208E0,-3.210986781E-1,-1.623169523E-1,-4.784098876E0,4.797609114E0
9.131307208E0,-1.524913643E-1,-4.505893618E-2,-4.217456317E0,4.220452785E0
9.141336208E0,-9.107162632E-2,-3.237106293E-2,-3.549492620E0,3.550808329E0
9.151365208E0,8.969044089E-3,-1.365339473E-1,-2.920691235E0,2.923894535E0
9.161394208E0,2.627541371E-2,-1.583823609E-1,-2.453877604E0,2.459123963E0
9.171424208E0,-4.016291633E-2,-1.334121189E-1,-2.063768917E0,2.068466581E0
9.181453208E0,1.071516886E-2,-8.084301889E-2,-1.626384907E0,1.628428161E0
9.191482208E0,2.607441567E-2,-8.348566800E-2,-1.146738392E0,1.150068986E0
9.201511208E0,-3.324726820E-2,-2.064575833E-1,-6.264490503E-1,6.604305620E-1
9.211540208E0,-9.432932943E-2,-4.697232056E-1,-1.189411372E-1,4.936445142E-1
9.221570208E0,-9.833606087E-2,-6.720240033E-1,3.424193805E-1,7.606163777E-1
9.231599208E0,-1.493487051E-1,-7.666132414E-1,7.245939803E-1,1.065381309E0
9.241628208E0,-2.850536999E-1,-7.796613032E-1,1.113745478E0,1.389084716E0
9.251657208E0,-3.990583984E-1,-7.717877349E-1,1.379329521E0,1.630169881E0
9.261686208E0,-5.797518705E-1,-7.567551282E-1,1.457246593E0,1.741366759E0
9.271716208E0,-7.492961276E-1,-5.054996869E-1,1.506401796E0,1.756764353E0
9.281745208E0,-9.288620737E-1,-2.301285741E-1,1.298583566E0,1.613091191E0
9.291774208E0,-8.656716527E-1,-1.026408541E-1,1.075608183E0,1.384505514E0
9.301803208E0,-7.821734132E-1,-4.224204004E-2,1.133262899E0,1.377630007E0
9.311832208E0,-6.067784687E-1,8.060152888E-2,1.382674128E0,1.512105969E0
9.321862208E0,-2.264761656E-1,2.220100075E-1,1.841091158E0,1.868206773E0
9.331891208E0,3.494944749E-2,3.898505321E-1,2.480205277E0,2.510900858E0
9.341920208E0,2.159633652E-1,5.324573976E-1,3.045591854E0,3.099319409E0
9.351949208E0,1.629595248E-1,5.917592740E-1,3.458857854E0,3.512895173E0
9.361979208E0,3.506313929E-2,7.816581273E-1,3.537774800E0,3.623267778E0
9.372008208E0,5.041991930E-2,1.216329906E0,3.198529288E0,3.422366172E0
9.382037208E0,2.371330999E-1,1.705757644E0,2.903888091E0,3.376152736E0
9.392066208E0,4.716888933E-1,2.102025203E0,2.719325407E0,3.469255112E0
9.402095208E0,7.954662540E-1,2.338186057E0,2.763169584E0,3.706074304E0
9.412125208E0,1.188203995E0,2.315829228E0,3.543257734E0,4.396540585E0
9.422154208E0,1.250244049E0,2.054246142E0,4.817316324E0,5.384196686E0
9.432183208E0,6.519931966E-1,1.621410973E0,6.084887427E0,6.330870688E0
9.442212208E0,-8.932941187E-2,1.198717800E0,7.293804526E0,7.392191053E0
9.452241208E0,-6.546270749E-1,1.150212223E0,7.802245654E0,7.913694587E0
9.462271208E0,-1.065148976E0,1.432650281E0,7.256340830E0,7.472717806E0
9.472300208E0,-1.313484464E0,1.950257797E0,6.143359584E0,6.577964266E0
9.482329208E0,-1.257465653E0,2.744566375E0,4.829720607E0,5.695618105E0
9.492358208E0,-1.131860737E0,3.496664196E0,4.154125709E0,5.546578191E0
9.502387208E0,-1.115031719E0,3.751192032E0,4.691024067E0,6.109046095E0
9.512417208E0,-9.951306883E-1,3.468671236E0,6.591580823E0,7.514712435E0
9.522446208E0,-8.609754615E-1,3.013752303E0,9.199642487E0,9.718919877E0
9.532475458E0,-6.184942789E-1,2.572333130E0,1.188640592E1,1.217727714E1
9.542504458E0,-2.038350523E-1,2.229632498E0,1.402473619E1,1.420232499E1
9.552533458E0,-8.669502195E-3,1.856628087E0,1.469403656E1,1.481086944E1
9.562563458E0,-1.773747386E-2,1.474581541E0,1.370700317E1,1.378610319E1
9.572592458E0,-1.726924711E-1,1.561182313E0,1.214352319E1,1.224468327E1
9.582621458E0,1.856198609E-1,2.093132757E0,1.086494880E1,1.106628989E1
9.592650458E0,7.012497027E-1,2.421827846E0,1.002450861E1,1.033671970E1
9.602680458E0,1.278828748E0,2.612964847E0,1.008996936E1,1.050097472E1
9.612709458E0,2.518351927E0,2.710463952E0,1.133701440E1,1.192546044E1
9.622738458E0,3.726087888E0,2.528667878E0,1.296910210E1,1.372863800E1
9.632767458E0,4.028155049E0,1.965136622E0,1.398161415E1,1.468241565E1
9.642796458E0,2.964282812E0,7.198530579E-1,1.373519377E1,1.406985106E1
9.652826458E0,2.375459133E-1,-4.843149322E-1,1.193628384E1,1.194846688E1
9.662855458E0,-2.068841962E0,-1.126350321E0,9.004031489E0,9.307059426E0
9.672884458E0,-2.379094639E0,-1.072350992E0,5.253448445E0,5.865897077E0
9.682913458E0,-1.837097656E0,-3.082862592E-1,6.393404067E-1,1.969447732E0
9.692942458E0,-9.873269212E-1,1.028618789E0,-4.706151398E0,4.917390776E0
9.702972458E0,-2.157989489E-1,2.099428454E0,-8.902082945E0,9.148838712E0
9.713001458E0,4.811508577E-1,2.542378137E0,-1.056772313E1,1.087988810E1
9.723030458E0,1.090671342E0,1.918811471E0,-9.469051194E0,9.722876733E0
9.733059458E0,1.044281579E0,6.083083561E-1,-5.675181797E0,5.802434963E0
9.743088458E0,3.369545728E-2,-1.119136318E0,5.246472716E-2,1.120871996E0
9.753118458E0,-1.621767800E0,-2.769719051E0,6.105062660E0,6.897337493E0
9.763147458E0,-3.325089347E0,-3.764305290E0,9.963774755E0,1.115809217E1
9.773176458E0,-3.799253221E0,-3.859385110E0,1.036993639E1,1.169892128E1
9.783205458E0,-2.934185732E0,-3.043871019E0,8.614275974E0,9.595850522E0
9.793235458E0,-2.396456484E0,-2.228118362E0,4.802679573E0,5.811475389E0
9.803264458E0,-1.921322996E0,-1.484612440E0,-7.892226702E-1,2.553121340E0
9.813293458E0,-1.235322832E0,-5.825583878E-1,-5.616401492E0,5.780083260E0
9.823322458E0,3.622569733E-1,5.163743386E-1,-8.128981633E0,8.153417380E0
9.833351458E0,2.581286094E0,8.945585060E-1,-8.613359715E0,9.036218147E0
9.843381458E0,3.546489783E0,2.521027029E-2,-8.647571774E0,9.346588839E0
9.853410458E0,3.145488026E0,-1.185645473E0,-8.972519674E0,9.581542643E0
9.863439458E0,2.084626666E0,-1.666492129E0,-8.757894700E0,9.155522046E0
9.873468458E0,1.111146683E0,-1.452879893E0,-7.971013255E0,8.178175790E0
9.883497458E0,3.552273775E-1,-1.145097079E0,-6.965628963E0,7.068056356E0
9.893527458E0,-3.229580561E-1,-1.040302403E0,-6.370057889E0,6.462520290E0
9.903556458E0,-1.292889547E0,-1.615655559E0,-6.626533139E0,6.942106864E0
9.913585458E0,-2.227060747E0,-2.431447392E0,-7.553930778E0,8.242184552E0
9.923614458E0,-2.658076116E0,-2.983697907E0,-8.186735167E0,9.109909688E0
9.933643458E0,-2.450180117E0,-3.212402100E0,-8.230038477E0,9.168230101E0
9.943673458E0,-1.687253984E0,-3.147778965E0,-8.106897869E0,8.858731934E0
9.953702458E0,-8.865495016E-1,-2.851176319E0,-7.985886233E0,8.525816990E0
9.963731458E0,-2.364872384E-1,-2.509090230E0,-7.884051125E0,8.277059994E0
9.973760458E0,3.413436025E-1,-2.271333671E0,-8.025252028E0,8.347463220E0
9.983790458E0,7.511977883E-1,-2.145762084E0,-8.157917749E0,8.468778840E0
9.993819458E0,1.088804983E0,-2.064213013E0,-8.138396235E0,8.466402125E0
1.000384846E1,8.318428058E-1,-2.005600524E0,-8.183480607E0,8.466625701E0
1.001387746E1,1.102567429E-1,-2.114248807E0,-8.345068996E0,8.609435586E0
1.002390646E1,-4.965244301E-1,-2.467220073E0,-8.417379758E0,8.785555952E0
1.003393646E1,-8.282609477E-1,-2.777281255E0,-8.057295939E0,8.562670448E0
1.004396546E1,-8.686426230E-1,-3.050696766E0,-7.737520486E0,8.362446653E0
1.005399446E1,-8.081800742E-1,-3.074353139E0,-7.590033242E0,8.228815641E0
1.006402346E1,-9.218449033E-1,-2.827649170E0,-7.861932278E0,8.405675285E0
1.007405246E1,-8.654132058E-1,-2.716915477E0,-8.271774148E0,8.749446684E0
1.008408246E1,-6.580437492E-1,-2.701634949E0,-8.601520858E0,9.039801659E0
1.009411146E1,-5.395271198E-1,-2.717198775E0,-8.772113374E0,9.199142990E0
1.010414046E1,-3.158246723E-1,-2.837090669E0,-8.767777664E0,9.220778376E0
1.011416946E1,-1.512438243E-1,-2.892620215E0,-8.680238999E0,9.150774583E0
1.012419946E1,-2.379638065E-1,-2.745770902E0,-8.724122937E0,9.149109554E0
1.013422846E1,-3.449079190E-1,-2.544030852E0,-8.837767666E0,9.203107723E0
1.014425746E1,-1.939187044E-1,-2.550862446E0,-8.663173900E0,9.032999817E0
1.015428646E1,-1.327131939E-1,-2.585669167E0,-8.441281421E0,8.829412770E0
1.016431546E1,5.228561964E-2,-2.582493544E0,-8.313522098E0,8.705553191E0
1.017434546E1,1.732779966E-1,-2.603670698E0,-8.119222630E0,8.528241465E0
1.018437446E1,1.036409473E-1,-2.690153064E0,-7.630595961E0,8.091579554E0
1.019440346E1,2.400552459E-2,-2.742906936E0,-6.868689144E0,7.396148002E0
1.020443246E1,-2.723669596E-3,-2.694382939E0,-6.104441101E0,6.672623772E0
1.021446146E1,-1.866288345E-1,-2.611724360E0,-5.502052174E0,6.093317042E0
1.022449146E1,-5.183881562E-1,-2.469125388E0,-4.972423659E0,5.575867960E0
1.023452046E1,-7.258762016E-1,-2.458835458E0,-4.509188524E0,5.187055929E0
1.024454946E1,-6.984021087E-1,-3.000493450E0,-3.889985343E0,4.962127811E0
1.025457846E1,-3.509201723E-1,-4.024237415E0,-2.710130661E0,4.864405404E0
1.026460746E1,5.854145334E-1,-4.966992180E0,-1.154589449E0,5.132913236E0
1.027463746E1,2.463805007E0,-5.613191371E0,5.800145566E-1,6.157488885E0
1.028466646E1,4.195870736E0,-6.140757573E0,2.352155932E0,7.800440521E0
1.029469546E1,3.272552115E0,-5.885631275E0,2.143148378E0,7.067060055E0
1.030472446E1,-7.141940495E-1,-3.923221502E0,-1.616620642E0,4.302929513E0
1.031475446E1,-4.371745919E0,1.681770319E-1,-8.211415095E0,9.304180982E0
1.032478346E1,-4.582613180E0,5.997341160E0,-1.306716575E1,1.509036995E1
1.033481246E1,-4.094764191E0,1.071569511E1,-1.060770055E1,1.562422883E1
1.034484146E1,-2.506996635E0,1.022262514E1,-2.616797404E0,1.084595434E1
1.035487046E1,-3.077930465E-2,6.067520612E0,4.337851072E0,7.458733516E0
1.036490046E1,1.618601971E0,2.269416661E0,8.475991663E0,8.922587012E0
1.037492946E1,2.117787834E0,1.536355913E-2,9.671065478E0,9.900240847E0
1.038495846E1,1.636579089E0,-1.437608135E-1,7.208753266E0,7.393590598E0
1.039498746E1,1.100557521E0,1.414460177E0,2.638963029E0,3.189992213E0
1.040501646E1,8.243905295E-1,3.373668015E0,-1.065257442E0,3.632633898E0
1.041504646E1,9.492112613E-1,4.445821663E0,-1.988747386E0,4.962000448E0
1.042507546E1,7.606704238E-1,4.392805544E0,-2.507566738E-1,4.465225520E0
1.043510446E1,-2.365534946E-1,3.745950880E0,3.431349043E0,5.085495237E0
1.044513346E1,-1.491748235E0,3.102478831E0,7.171943289E0,7.955341491E0
1.045516346E1,-2.901227901E0,2.249860064E0,9.763298289E0,1.043077117E1
1.046519246E1,-4.140557830E0,1.348649181E0,1.151222037E1,1.230830174E1
1.047522146E1,-4.734004025E0,1.023827873E0,1.262148864E1,1.351891242E1
1.048525046E1,-4.412160704E0,1.084826611E0,1.280282249E1,1.358514904E1
1.049527946E1,-3.285251098E0,1.251947343E0,1.258723214E1,1.306899613E1
1.050530946E1,-1.496078537E0,1.881182592E0,1.288945951E1,1.311164618E1
1.051533846E1,3.409730718E-3,2.882456877E0,1.376218568E1,1.406080809E1
1.052536746E1,7.507305226E-1,3.685453248E0,1.491148165E1,1.537850600E1
1.053539658E1,8.622652110E-1,3.997331452E0,1.529981161E1,1.583686823E1
1.054542558E1,3.424135333E-1,4.189696368E0,1.411505462E1,1.472771434E1
1.055545558E1,-5.781268562E-1,4.455009685E0,1.175019971E1,1.257968740E1
1.056548458E1,-1.365286409E0,4.793105927E0,9.382460362E0,1.062395566E1
1.057551358E1,-1.831167263E0,5.127452642E0,7.619671023E0,9.365005640E0
1.058554258E1,-2.001334103E0,5.131554464E0,6.746484675E0,8.709376836E0
1.059557158E1,-1.769634820E0,4.752801070E0,6.904710331E0,8.567131968E0
1.060560158E1,-1.465608404E0,4.198264001E0,7.507368230E0,8.725480294E0
1.061563058E1,-1.087975556E0,3.450344893E0,7.897350617E0,8.686582611E0
1.062565958E1,-6.144491751E-1,2.696824737E0,7.822103384E0,8.296729042E0
1.063568858E1,-2.041078797E-1,2.018384584E0,7.204081340E0,7.484271796E0
1.064571858E1,-1.161593243E-2,1.488929147E0,6.201700178E0,6.377940893E0
1.065574758E1,1.771607671E-2,1.254217232E0,4.897879845E0,5.055947162E0
1.066577658E1,9.748386573E-2,1.451431245E0,3.322163401E0,3.626696213E0
1.067580558E1,1.817425539E-1,1.856086635E0,1.831755493E0,2.614080362E0
1.068583458E1,-8.865822461E-3,2.032596534E0,4.935786760E-1,2.091685249E0
1.069586458E1,-3.142305386E-1,2.008818831E0,-9.428991920E-1,2.241239125E0
1.070589358E1,-5.929325909E-1,2.020838660E0,-1.965851444E0,2.880959883E0
1.071592258E1,-8.675135987E-1,1.964711237E0,-2.364814569E0,3.194529392E0
1.072595158E1,-1.027820644E0,1.698812321E0,-2.513417462E0,3.203068204E0
1.073598158E1,-1.165649676E0,1.246213856E0,-2.563028163E0,3.079107258E0
1.074601058E1,-1.168603763E0,6.969056600E-1,-2.247533457E0,2.627302589E0
1.075603958E1,-1.107020668E0,2.333498052E-1,-1.600941333E0,1.960346919E0
1.076606858E1,-1.351457598E0,-2.007796445E-1,-1.139865575E0,1.779337976E0
1.077609758E1,-1.584621170E0,-4.863921556E-1,-1.163799983E0,2.025347373E0
1.078612758E1,-1.731802019E0,-4.912476835E-1,-1.993501173E0,2.685983888E0
1.079615658E1,-1.882162878E0,-3.771389776E-1,-3.551907520E0,4.037427144E0
1.080618558E1,-1.522112095E0,-2.431438914E-1,-5.095752547E0,5.323780443E0
1.081621458E1,-4.972532125E-1,5.161103368E-2,-5.727853516E0,5.749628714E0
1.082624358E1,1.089052832E0,4.206434315E-1,-5.224500634E0,5.353352580E0
1.083627358E1,2.484639221E0,4.085996291E-1,-3.234517146E0,4.099083664E0
1.084630258E1,2.895789113E0,3.736224622E-2,-2.816007364E-1,2.909688901E0
1.085633158E1,2.911057947E0,-1.620979741E-1,1.913841630E0,3.487595721E0
1.086636058E1,2.728406133E0,-1.473749775E-1,2.375896212E0,3.620884177E0
1.087638958E1,2.201473477E0,-1.049888036E-1,1.200968394E0,2.509946852E0
1.088641958E1,1.956433334E0,1.007311535E-1,-8.640676153E-1,2.141119100E0
1.089644858E1,1.999927847E0,2.513680002E-1,-2.738731146E0,3.400521366E0
1.090647758E1,1.723738709E0,6.995199502E-2,-3.798389879E0,4.171802260E0
1.091650658E1,1.045647196E0,-3.532414073E-1,-4.053387539E0,4.200965138E0
1.092653658E1,5.066390169E-1,-6.662770674E-1,-3.810930403E0,3.901768671E0
1.093656558E1,5.610928206E-1,-9.030720520E-1,-3.535708979E0,3.692099981E0
1.094659458E1,4.592565434E-1,-1.202874878E0,-3.524036767E0,3.751887482E0
1.095662358E1,2.070616007E-2,-1.772158332E0,-3.719067137E0,4.119761433E0
1.096665258E1,-3.276288486E-1,-2.296395714E0,-3.611111748E0,4.291957828E0
1.097668258E1,-8.396537358E-1,-2.522662787E0,-3.435598800E0,4.344212822E0
1.098671158E1,-8.133994451E-1,-2.626665750E0,-3.280171621E0,4.280247363E0
1.099674058E1,-5.950609043E-1,-2.546013058E0,-3.367195147E0,4.263130673E0
1.100676958E1,-5.873509119E-1,-2.167953144E0,-4.283039857E0,4.836262229E0
1.101679958E1,-8.769031307E-1,-1.777275523E0,-5.633526818E0,5.971958790E0
1.102682858E1,-1.007803140E0,-1.613760769E0,-6.509471297E0,6.781821846E0
1.103685758E1,-9.741100211E-1,-1.699783836E0,-6.524720251E0,6.812498057E0
1.104688658E1,-9.413701451E-1,-1.887041794E0,-5.664215929E0,6.044042238E0
1.105691558E1,-8.709373628E-1,-1.990566747E0,-4.359136106E0,4.870621671E0
1.106694558E1,-9.208293150E-1,-1.944207683E0,-3.120415165E0,3.790100387E0
1.107697458E1,-7.501530370E-1,-2.149400221E0,-1.924457835E0,2.980971125E0
1.108700358E1,-1.063126132E-1,-2.370216812E0,-7.863879400E-1,2.499527175E0
1.109703258E1,-5.742021319E-1,-1.929949540E0,5.764594495E-1,2.094449525E0
1.110706158E1,-1.125771446E0,-1.014462387E0,8.390567350E-1,1.732198455E0
1.111709158E1,-9.652165523E-1,-4.552186024E-1,3.841737628E-1,1.134220635E0
1.112712058E1,-4.367134805E-1,-1.308516231E-1,-4.124596685E-1,6.147875970E-1
1.113714958E1,6.932963200E-2,3.694279620E-1,-7.467063957E-1,8.359749150E-1
1.114717858E1,4.936606832E-1,9.056401491E-1,-8.628736138E-1,1.344780957E0
1.115720858E1,8.205757329E-1,1.078421571E0,-4.281296217E-1,1.421137780E0
1.116723758E1,1.053789225E0,8.689561799E-1,6.615288359E-1,1.517622145E0
1.117726658E1,1.111042968E0,4.665277022E-1,1.863570778E0,2.219225229E0
1.118729558E1,1.041025849E0,-6.123204231E-2,2.659904248E0,2.857022014E0
1.119732458E1,7.515891863E-1,-4.993443230E-1,2.766421806E0,2.909866090E0
1.120735458E1,7.476798110E-2,-6.915276834E-1,1.827255476E0,1.955163257E0
1.121738358E1,-4.663994289E-1,-7.354718480E-1,4.130753803E-1,9.638872010E-1
1.122741258E1,-6.374797495E-1,-7.114690277E-1,-7.511730838E-1,1.215248785E0
1.123744158E1,-7.557923111E-1,-7.136988634E-1,-1.912700838E0,2.176927326E0
1.124747158E1,-7.729020680E-1,-7.690243408E-1,-2.877061651E0,3.076728748E0
1.125750058E1,-7.190204144E-1,-8.766946775E-1,-3.568048174E0,3.743868546E0
1.126752958E1,-7.186217804E-1,-9.804900643E-1,-4.108623261E0,4.284689386E0
1.127755858E1,-7.316836562E-1,-1.113917678E0,-4.540087550E0,4.731656003E0
1.128758758E1,-7.206797080E-1,-1.305930008E0,-4.939409695E0,5.159709348E0
1.129761758E1,-8.423725449E-1,-1.550922789E0,-5.375472234E0,5.657795926E0
1.130764658E1,-9.889257693E-1,-1.829227742E0,-5.761733453E0,6.125489424E0
1.131767558E1,-1.060546267E0,-2.051336567E0,-6.128553849E0,6.549191735E0
1.132770458E1,-1.215075021E0,-2.235569176E0,-6.447829950E0,6.931716087E0
1.133773358E1,-1.329859445E0,-2.295011971E0,-6.828708222E0,7.325766995E0
1.134776358E1,-1.237353278E0,-2.291447800E0,-7.056849620E0,7.522027832E0
1.135779258E1,-1.119336074E0,-2.224982208E0,-6.985045227E0,7.415815255E0
1.136782158E1,-9.381357577E-1,-2.192204179E0,-6.754477819E0,7.163018112E0
1.137785058E1,-7.598452355E-1,-2.210362999E0,-6.436304503E0,6.847560516E0
1.138788058E1,-4.735867533E-1,-2.125056508E0,-5.840735768E0,6.233325267E0
1.139790958E1,-1.462229298E-1,-1.922101699E0,-4.939367010E0,5.302188468E0
1.140793858E1,-7.263762116E-2,-1.774351038E0,-4.168464836E0,4.530970858E0
1.141796758E1,-2.808375286E-1,-1.610241622E0,-3.731390144E0,4.073698590E0
1.142799658E1,-4.727365682E-1,-1.350671440E0,-3.678951144E0,3.947464341E0
1.143802658E1,-8.078793812E-1,-1.102734878E0,-3.883779693E0,4.117333848E0
1.144805558E1,-1.311265153E0,-7.793601716E-1,-3.836961038E0,4.129054200E0
1.145808458E1,-1.559999860E0,-4.008278024E-1,-3.523205878E0,3.873918190E0
1.146811358E1,-1.297731773E0,5.181393206E-2,-2.461041028E0,2.782717265E0
1.147814358E1,-6.995082557E-1,5.696044663E-1,-3.320838422E-1,9.612703709E-1
1.148817258E1,-1.979196252E-1,9.406313494E-1,2.901405364E0,3.056486970E0
1.149820158E1,1.404501200E-1,9.844088683E-1,6.863423141E0,6.935082139E0
1.150823058E1,5.070491990E-1,9.061868638E-1,1.084587168E1,1.089546722E1
1.151825958E1,6.316608198E-1,7.621105930E-1,1.385987746E1,1.389517942E1
1.152828958E1,4.249550222E-1,5.267212790E-1,1.508915631E1,1.510432588E1
1.153831821E1,4.527781208E-1,4.393448737E-1,1.480869111E1,1.482212415E1
1.154834721E1,7.493262407E-1,6.362293956E-1,1.425017325E1,1.428403708E1
1.155837621E1,1.420607355E0,9.487145403E-1,1.427151559E1,1.437339006E1
1.156840621E1,2.244590992E0,1.158303892E0,1.460049047E1,1.481736071E1
1.157843521E1,2.732147182E0,1.167092257E0,1.496556372E1,1.525761547E1
1.158846421E1,2.710561308E0,1.132390202E0,1.492841168E1,1.521469439E1
1.159849321E1,2.029978443E0,1.042936281E0,1.412779454E1,1.431094361E1
1.160852221E1,1.366123000E0,1.038221671E0,1.270735734E1,1.282268017E1
1.161855221E1,8.386882874E-1,1.292245769E0,1.100596961E1,1.111326524E1
1.162858121E1,7.345316157E-1,1.663350712E0,9.380940086E0,9.555538142E0
1.163861021E1,9.903334133E-1,2.094157774E0,8.316203631E0,8.632815293E0
1.164863921E1,1.263606984E0,2.356824642E0,8.221919618E0,8.645882673E0
1.165866821E1,1.554418693E0,2.245389575E0,9.158690343E0,9.557175347E0
1.166869821E1,2.028003546E0,1.783790491E0,1.064678802E1,1.098402485E1
1.167872721E1,2.583645738E0,1.217094722E0,1.189820092E1,1.223616484E1
1.168875621E1,2.999796169E0,7.764824644E-1,1.243947651E1,1.281960521E1
1.169878521E1,3.326171375E0,5.398438928E-1,1.193955594E1,1.240596000E1
1.170881521E1,3.191349200E0,5.252606446E-1,1.079969154E1,1.127359507E1
1.171884421E1,2.830529509E0,6.260046619E-1,9.826337121E0,1.024503198E1
1.172887321E1,2.614975704E0,5.880690962E-1,9.683991918E0,1.004806562E1
1.173890221E1,2.346525210E0,3.131096274E-1,1.027125878E1,1.054053960E1
1.174893121E1,1.675234155E0,-2.434540862E-1,1.114804175E1,1.127583763E1
1.175896121E1,9.646132658E-1,-8.020117003E-1,1.212571959E1,1.219043794E1
1.176899021E1,2.537375844E-1,-1.301788571E0,1.276154231E1,1.283027663E1
1.177901921E1,-5.918329489E-1,-1.485426811E0,1.210487076E1,1.221002273E1
1.178904821E1,-1.446636382E0,-1.153053385E0,9.919590855E0,1.009061800E1
1.179907821E1,-1.928558195E0,-8.313337326E-2,6.604306703E0,6.880633321E0
1.180910721E1,-2.073170948E0,1.453035282E0,3.223846563E0,4.099089651E0
1.181913621E1,-1.676242069E0,3.071729493E0,6.727145594E-1,3.563404893E0
1.182916521E1,-8.423975417E-1,4.554809085E0,-4.674960011E-1,4.655585026E0
1.183919421E1,-1.508764364E-1,5.332257217E0,-3.243789661E-1,5.344244796E0
1.184922421E1,6.445230862E-1,5.092352976E0,-4.038204074E-2,5.133137398E0
1.185925321E1,1.195455931E0,4.112920673E0,-1.684407413E-1,4.286444170E0
1.186928221E1,1.141458941E0,3.011746416E0,-5.860412818E-1,3.273681318E0
1.187931121E1,9.724615449E-1,2.030212185E0,-1.124265203E0,2.516230359E0
1.188934021E1,5.241885576E-1,1.278697478E0,-1.570324143E0,2.091831446E0
1.189937021E1,-3.367040196E-1,7.641960025E-1,-1.909152163E0,2.083801120E0
1.190939921E1,-1.269751823E0,3.349568716E-1,-2.625577583E0,2.935664055E0
1.191942821E1,-1.980643438E0,-9.730117679E-2,-4.015934368E0,4.478855300E0
1.192945721E1,-2.094260100E0,-5.469421202E-1,-5.812946876E0,6.202855990E0
1.193948721E1,-1.817386838E0,-8.629285777E-1,-7.653296022E0,7.913310347E0
1.194951621E1,-1.803146529E0,-1.057394983E0,-8.913324217E0,9.155149925E0
1.195954521E1,-7.958665690E-1,-1.170166723E0,-1.036964637E1,1.046576607E1
1.196957421E1,-5.710770875E-2,-1.536714055E0,-1.197448019E1,1.207281770E1
1.197960321E1,-2.555408657E-1,-2.150501837E0,-1.294314280E1,1.312306766E1
1.198963321E1,-8.736506170E-1,-2.788989427E0,-1.316821032E1,1.348864301E1
1.199966221E1,-1.485612898E0,-3.523026368E0,-1.269564069E1,1.325888581E1
1.200969121E1,-2.206732171E0,-4.205087117E0,-1.172420884E1,1.264948605E1
1.201972021E1,-2.886413395E0,-4.868535594E0,-1.041216498E1,1.185104218E1
1.202975021E1,-3.667427744E0,-5.491143608E0,-9.250238444E0,1.136528027E1
1.203977921E1,-4.652205279E0,-6.030580242E0,-8.624375870E0,1.150611886E1
1.204980821E1,-5.771059762E0,-6.445740155E0,-8.072232066E0,1.183273542E1
1.205983721E1,-6.393796415E0,-6.393131002E0,-8.588677449E0,1.247069112E1
1.206986621E1,-6.186248326E0,-6.183666195E0,-1.002808243E1,1.330675893E1
1.207989621E1,-5.914384373E0,-6.308801288E0,-9.886179864E0,1.313459053E1
1.208992521E1,-5.682473275E0,-6.573651506E0,-9.387473180E0,1.279171800E1
1.209995421E1,-5.536405735E0,-6.911096660E0,-8.694744186E0,1.241022248E1
1.210998321E1,-5.530171434E0,-7.147156357E0,-7.995330656E0,1.206606615E1
1.212001321E1,-5.525884255E0,-7.300336450E0,-7.516452464E0,1.184598526E1
1.213004221E1,-5.418006635E0,-7.380114691E0,-7.349841317E0,1.174057308E1
1.214007121E1,-5.180947648E0,-7.391809123E0,-7.570704685E0,1.178119816E1
1.215010021E1,-5.053916304E0,-7.376613963E0,-8.046807788E0,1.202944800E1
1.216012921E1,-5.160664242E0,-7.405646558E0,-8.557986583E0,1.243845612E1
1.217015921E1,-5.278577439E0,-7.309439396E0,-9.089665132E0,1.280286281E1
1.218018821E1,-5.247058023E0,-7.072296209E0,-9.572968495E0,1.300733322E1
1.219021721E1,-4.959235264E0,-6.836518348E0,-9.886923630E0,1.300320177E1
1.220024621E1,-4.498846846E0,-6.647224097E0,-9.873073915E0,1.272410310E1
1.221027621E1,-3.962302829E0,-6.512566813E0,-9.582833333E0,1.224516496E1
1.222030521E1,-3.496113096E0,-6.368667421E0,-9.089858090E0,1.163650513E1
1.223033421E1,-3.129946126E0,-6.219765735E0,-8.510196705E0,1.099570355E1
1.224036321E1,-2.847714768E0,-6.073978277E0,-7.973268526E0,1.041996653E1
1.225039221E1,-2.719985850E0,-5.978590894E0,-7.532751578E0,9.994209245E0
1.226042221E1,-2.751774530E0,-5.937746338E0,-7.221175675E0,9.745484738E0
1.227045121E1,-2.832856993E0,-5.843050096E0,-7.051875978E0,9.586201958E0
1.228048021E1,-2.906563777E0,-5.768329112E0,-6.827060477E0,9.398430108E0
1.229050921E1,-2.944206982E0,-5.788818925E0,-6.456220704E0,9.157596032E0
1.230053921E1,-2.744945860E0,-5.778557062E0,-5.982704995E0,8.758950196E0
1.231056821E1,-2.212754510E0,-5.455246966E0,-5.961937439E0,8.378585800E0
1.232059721E1,-1.711569484E0,-4.967503812E0,-6.216861423E0,8.139713151E0
1.233062621E1,-1.219879897E0,-4.580688862E0,-5.780510616E0,7.475635117E0
1.234065521E1,-5.442427531E-1,-4.067222636E0,-4.768003246E0,6.290656173E0
1.235068521E1,2.758362588E-1,-3.351522855E0,-3.542406380E0,4.884407236E0
1.236071421E1,7.848988004E-1,-2.577664329E0,-1.850894600E0,3.268980015E0
1.237074321E1,6.790276520E-1,-1.154840879E0,-2.773503953E-1,1.368085980E0
1.238077221E1,-2.086454652E-1,1.706800495E0,1.991696137E-1,1.731002425E0
1.239080221E1,-2.017861843E0,5.172932285E0,-6.253339863E-1,5.587668336E0
1.240083121E1,-4.218609680E0,7.677015252E0,-4.020752474E0,9.638448074E0
1.241086021E1,-5.178689454E0,1.046861166E1,-8.388986263E0,1.438004677E1
1.242088921E1,-5.239690531E0,1.408882869E1,-9.025880195E0,1.753328161E1
1.243091821E1,-4.898845806E0,1.526512476E1,-2.577149189E0,1.623774683E1
1.244094821E1,-2.710672405E0,1.275223472E1,8.140880717E0,1.537013904E1
1.245097721E1,1.585032156E-2,8.570921794E0,1.665592476E1,1.873181201E1
1.246100621E1,8.087805102E-1,3.979402134E0,2.241627418E1,2.278111313E1
1.247103521E1,1.353314966E0,2.530435199E-1,2.714994141E1,2.718482685E1
1.248106521E1,2.453489057E0,-2.314423265E0,2.926837126E1,2.946207257E1
1.249109421E1,3.049034403E0,-2.588116812E0,2.686417862E1,2.716024765E1
1.250112321E1,3.210734766E0,-9.971917588E-1,2.071832695E1,2.098933732E1
1.251115221E1,3.138493001E0,6.274021465E-1,1.463231335E1,1.497826311E1
1.252118121E1,2.857737772E0,1.230309722E0,9.899836621E0,1.037723915E1
1.253121154E1,2.650977303E0,1.120305469E0,5.578763550E0,6.277369493E0
1.254124054E1,1.973321847E0,8.664351529E-1,2.129489867E0,3.029758419E0
1.255126954E1,9.789735889E-1,6.977125758E-1,-2.358322406E-1,1.225075088E0
1.256129854E1,-1.279487729E-2,6.546349686E-1,-1.857829397E0,1.969832663E0
1.257132854E1,-6.519686383E-1,5.560620224E-1,-2.845965573E0,2.972168926E0
1.258135754E1,-7.787687257E-1,3.876990491E-1,-2.989449229E0,3.113454347E0
1.259138654E1,-5.757180226E-1,2.430564755E-1,-2.360996338E0,2.442300431E0
1.260141554E1,-7.116018326E-1,2.869708192E-1,-9.915246373E-1,1.253734631E0
1.261144454E1,-7.608510297E-1,5.522706878E-1,8.209128249E-1,1.248116608E0
1.262147454E1,-3.322781159E-1,9.407135028E-1,2.415719259E0,2.613627782E0
1.263150354E1,3.577925876E-1,1.419934341E0,3.958188436E0,4.220365477E0
1.264153254E1,1.163833312E0,2.106104513E0,5.291293963E0,5.812742554E0
1.265156154E1,2.096236605E0,3.403672710E0,6.226527455E0,7.399245906E0
1.266159154E1,3.059057115E0,4.999397449E0,6.983061267E0,9.116740094E0
1.267162054E1,3.735448404E0,6.213960035E0,7.888212588E0,1.071404554E1
1.268164954E1,4.331917318E0,6.888544534E0,9.121939423E0,1.222404730E1
1.269167854E1,4.765386324E0,7.073313625E0,1.102289262E1,1.393717454E1
1.270170754E1,4.544810346E0,6.719868150E0,1.344747801E1,1.570498628E1
1.271173754E1,3.894581547E0,5.771082566E0,1.577266074E1,1.724093925E1
1.272176654E1,2.874930925E0,4.278710286E0,1.724104862E1,1.799517566E1
1.273179554E1,1.598296491E0,2.694332946E0,1.750912007E1,1.778716580E1
1.274182454E1,4.037708522E-1,1.679908858E0,1.623793772E1,1.632959724E1
1.275185454E1,-1.470595933E-1,1.528112508E0,1.384092897E1,1.392580587E1
1.276188354E1,-1.713186678E-1,1.717917806E0,1.085543187E1,1.099186030E1
1.277191254E1,-6.785372168E-2,1.771650794E0,7.689472160E0,7.891218713E0
1.278194154E1,1.613995242E-1,1.815956901E0,4.774568499E0,5.110797749E0
1.279197054E1,4.674367981E-1,1.911618226E0,2.173345739E0,2.931929928E0
1.280200054E1,6.576460654E-1,2.125571356E0,-8.129968643E-2,2.226468408E0
1.281202954E1,8.191927202E-1,2.295649902E0,-1.912136582E0,3.097959247E0
1.282205854E1,9.101294951E-1,2.279737874E0,-3.113599066E0,3.964850516E0
1.283208754E1,8.646928288E-1,2.179862460E0,-3.701303880E0,4.381682833E0
1.284211754E1,7.477823565E-1,2.011745070E0,-3.900932500E0,4.452366905E0
1.285214654E1,6.013169134E-1,1.795890719E0,-3.899373633E0,4.334964848E0
1.286217554E1,4.722011094E-1,1.627770113E0,-3.887095649E0,4.240533223E0
1.287220454E1,4.889143521E-1,1.546823013E0,-3.817723113E0,4.148096967E0
1.288223354E1,5.770835667E-1,1.494121474E0,-3.400657008E0,3.758974928E0
1.289226354E1,6.682434860E-1,1.304349213E0,-2.790269090E0,3.151742029E0
1.290229254E1,8.847911708E-1,1.060260996E0,-2.082540818E0,2.498796722E0
1.291232154E1,1.247960712E0,8.240533644E-1,-1.426394345E0,2.066656893E0
1.292235054E1,1.414822851E0,5.719535851E-1,-9.890231985E-1,1.818521787E0
1.293238054E1,1.449126857E0,4.196727937E-1,-8.442894083E-1,1.728848897E0
1.294240954E1,1.690787456E0,2.996081141E-1,-8.855005842E-1,1.932003760E0
1.295243854E1,1.860395740E0,1.361135325E-1,-9.363181508E-1,2.087172941E0
1.296246754E1,1.572539214E0,-1.208429441E-1,-1.205309951E0,1.985007475E0
1.297249654E1,1.102605509E0,-3.092092422E-1,-1.736892021E0,2.080418985E0
1.298252654E1,7.425615969E-1,-2.956893101E-1,-2.306367556E0,2.440934492E0
1.299255554E1,3.977520208E-1,-3.022478396E-1,-2.988385620E0,3.029852974E0
1.300258454E1,4.980365932E-2,-4.042501777E-1,-3.527582518E0,3.551019154E0
1.301261354E1,-2.994581330E-1,-4.689221370E-1,-3.926674867E0,3.965896955E0
1.302264354E1,-3.364679383E-1,-5.579331315E-1,-4.134956782E0,4.185972723E0
1.303267254E1,-2.482403246E-1,-6.472040346E-1,-3.926125814E0,3.986848408E0
1.304270154E1,-3.585356225E-1,-6.998403776E-1,-3.545791917E0,3.631936765E0
1.305273054E1,-6.343860608E-1,-9.422317323E-1,-3.098170018E0,3.299833900E0
1.306275954E1,-7.538341516E-1,-1.339660548E0,-2.670204118E0,3.081062535E0
1.307278954E1,-8.813370743E-1,-1.686003118E0,-2.334935882E0,3.011857753E0
1.308281854E1,-1.081058373E0,-1.920160131E0,-2.233226489E0,3.137356003E0
1.309284754E1,-1.305190481E0,-2.122942740E0,-2.403610260E0,3.462333079E0
1.310287654E1,-1.344582442E0,-2.203536375E0,-2.801926684E0,3.809759525E0
1.311290654E1,-1.242974060E0,-2.065685635E0,-3.424165739E0,4.187714491E0
1.312293554E1,-1.208650027E0,-1.896287704E0,-4.211316741E0,4.774089508E0
1.313296454E1,-1.107839059E0,-1.704526220E0,-4.718193739E0,5.137515856E0
1.314299354E1,-8.305130759E-1,-1.543368771E0,-4.826774780E0,5.135123553E0
1.315302354E1,-5.849572080E-1,-1.417198721E0,-4.749260581E0,4.990601488E0
1.316305254E1,-5.518634292E-1,-1.287751307E0,-4.784861938E0,4.985755754E0
1.317308154E1,-6.019556487E-1,-1.232320287E0,-4.858892950E0,5.048742873E0
1.318311054E1,-6.675356805E-1,-1.213427641E0,-4.729418639E0,4.928023051E0
1.319313954E1,-8.792678909E-1,-1.121802649E0,-4.560752780E0,4.778286212E0
1.320316954E1,-9.520150012E-1,-9.618272138E-1,-4.465753652E0,4.666304730E0
1.321319854E1,-7.567166828E-1,-8.011118138E-1,-4.242839080E0,4.383615373E0
1.322322754E1,-5.553007150E-1,-5.169438574E-1,-4.157445173E0,4.226102247E0
1.323325654E1,-2.779421335E-1,-2.592254886E-1,-4.050977316E0,4.068767246E0
1.324328554E1,8.828170046E-2,-1.347046459E-1,-3.431396990E0,3.435174567E0
1.325331554E1,3.847596538E-1,-4.430786133E-2,-2.386284376E0,2.417510352E0
1.326334454E1,7.155616401E-1,1.879230791E-1,-1.246540423E0,1.449553921E0
1.327337354E1,8.576166746E-1,3.653846124E-1,-4.946124637E-1,1.055297951E0
1.328340254E1,4.833558427E-1,3.506370574E-1,-2.065710193E-1,6.318629620E-1
1.329343254E1,-1.744486092E-1,2.158961588E-1,-2.138718528E-1,3.504063898E-1
1.330346154E1,-6.413805733E-1,3.201789111E-2,-4.917911822E-1,8.088589197E-1
1.331349054E1,-1.286423842E0,-2.436827123E-1,-3.344391006E-1,1.351338995E0
1.332351954E1,-9.304513469E-2,-9.176210940E-2,-4.984955996E-1,5.153402222E-1
1.333354954E1,4.414059807E-1,3.764127535E-1,-5.344665009E-1,7.887840270E-1
1.334357854E1,9.906623192E-1,1.301905954E-1,-8.631443399E-1,1.320370998E0
1.335360754E1,2.228766672E0,1.252263093E0,-2.359193641E-1,2.567337469E0
1.336363654E1,1.372676121E0,2.296922548E0,4.105066985E-1,2.707140313E0
1.337366554E1,8.309958366E-1,2.026947831E0,7.974561346E-1,2.331310335E0
1.338369554E1,1.023522356E0,1.379852116E0,7.215493351E-1,1.863390275E0
1.339372454E1,4.347488891E-1,9.101604854E-1,1.023942186E0,1.437308702E0
1.340375354E1,-4.041904631E-1,7.065988818E-1,1.733814046E0,1.915401540E0
1.341378254E1,-7.721928008E-1,5.476281448E-1,2.253771266E0,2.444516972E0
1.342381254E1,-9.599302308E-1,3.269007240E-1,2.393364184E0,2.599331116E0
1.343384154E1,-1.043043431E0,1.424237014E-1,2.281846672E0,2.512975994E0
1.344387054E1,-9.799603066E-1,2.859142274E-3,2.061535866E0,2.282599506E0
1.345389954E1,-9.648684968E-1,-1.501168831E-1,1.696412331E0,1.957376073E0
1.346392854E1,-9.641291895E-1,-2.460341701E-1,1.341975169E0,1.670621220E0
1.347395854E1,-8.277151832E-1,-1.618550223E-1,8.015895313E-1,1.163552856E0
1.348398754E1,-6.156284854E-1,3.955875278E-2,8.620550036E-2,6.228922180E-1
1.349401654E1,-5.287808876E-1,1.365180136E-1,-6.160497773E-1,8.232640665E-1
1.350404554E1,-4.413213423E-1,2.276413147E-1,-1.278808867E0,1.371837168E0
1.351407554E1,-2.323392236E-1,3.551497923E-1,-1.766530972E0,1.816795136E0
1.352410454E1,-1.188905496E-1,3.835538118E-1,-2.050725533E0,2.089670716E0
1.353413308E1,-1.611599528E-1,2.509633729E-1,-2.312297217E0,2.331453102E0
1.354416208E1,-2.211647925E-1,5.802966848E-2,-2.306708449E0,2.318013195E0
1.355419108E1,-3.087451194E-1,-1.630208109E-1,-1.983360347E0,2.013856400E0
1.356422108E1,-4.463777585E-1,-5.232801926E-1,-1.607818828E0,1.748758602E0
1.357425008E1,-5.731251113E-1,-8.422817668E-1,-1.167196630E0,1.549276909E0
1.358427908E1,-6.116194151E-1,-8.548154198E-1,-1.078759832E0,1.506157524E0
1.359430808E1,-6.740695786E-1,-6.730247542E-1,-1.401433166E0,1.694504953E0
1.360433808E1,-5.642681511E-1,-4.175199951E-1,-2.069353593E0,2.185164933E0
1.361436708E1,-3.437375622E-1,-1.614721759E-1,-2.935643735E0,2.960106909E0
1.362439608E1,-7.605970412E-2,1.941560648E-1,-3.767575638E0,3.773341734E0
1.363442508E1,1.683741927E-1,4.442970268E-1,-4.067988621E0,4.095641725E0
1.364445508E1,4.477556549E-1,4.122075073E-1,-3.738639522E0,3.787852377E0
1.365448408E1,5.695603929E-1,1.756700926E-1,-3.153550751E0,3.209383331E0
1.366451308E1,4.988348478E-1,-1.316857284E-1,-2.507770806E0,2.560291341E0
1.367454208E1,2.362389327E-1,-4.610136317E-1,-2.032188106E0,2.097172119E0
1.368457108E1,-3.675282747E-1,-8.469858518E-1,-1.756705311E0,1.984559300E0
1.369460108E1,-1.006810209E0,-1.036371320E0,-1.960953231E0,2.435789376E0
1.370463008E1,-1.174964364E0,-9.718358928E-1,-2.519234857E0,2.944749654E0
1.371465908E1,-9.677877192E-1,-8.035406010E-1,-3.435095939E0,3.658165480E0
1.372468808E1,-7.711220294E-1,-4.900162598E-1,-4.490798446E0,4.582795632E0
1.373471808E1,-5.342547951E-1,-9.386067510E-2,-5.397737846E0,5.424925057E0
1.374474708E1,-2.855037163E-1,2.870272449E-1,-5.877339338E0,5.891265968E0
1.375477608E1,-2.149522355E-1,4.111197791E-1,-5.657779899E0,5.676768211E0
1.376480508E1,-1.702954416E-1,2.315719593E-1,-4.569988457E0,4.579019612E0
1.377483408E1,2.772311121E-3,-6.791219383E-2,-2.991098143E0,2.991870294E0
1.378486408E1,5.085129764E-2,-3.486304392E-1,-1.513831853E0,1.554289522E0
1.379489308E1,-2.461079181E-1,-4.695186992E-1,-5.854846269E-1,7.898159055E-1
1.380492208E1,-6.231776793E-1,-4.671207561E-1,-4.915894532E-1,9.209844794E-1
1.381495108E1,-8.389779438E-1,-3.623209637E-1,-9.574265993E-1,1.323565701E0
1.382498108E1,-7.947629801E-1,-1.660300805E-1,-1.680980360E0,1.866791138E0
1.383501008E1,-6.066534479E-1,2.521810555E-1,-2.396669616E0,2.485085298E0
1.384503908E1,-4.476965980E-1,7.244606638E-1,-2.681873991E0,2.813844985E0
1.385506808E1,-5.534228817E-1,9.296070090E-1,-2.228245831E0,2.476999306E0
1.386509808E1,-6.907717846E-1,8.582408649E-1,-9.331068599E-1,1.443756023E0
1.387512708E1,-8.605003752E-1,5.042849278E-1,9.349224204E-1,1.367056735E0
1.388515608E1,-1.153717483E0,7.235943988E-2,2.673770919E0,2.912962555E0
1.389518508E1,-1.430822587E0,-3.305656126E-1,3.808961061E0,4.082243410E0
1.390521408E1,-1.757763365E0,-6.161316383E-1,4.254101402E0,4.643999244E0
1.391524408E1,-2.043858856E0,-5.831482257E-1,3.941340269E0,4.477899506E0
1.392527308E1,-2.077970342E0,-9.881224349E-2,3.390823161E0,3.978115925E0
1.393530208E1,-1.683966094E0,7.664370941E-1,3.373271574E0,3.847353472E0
1.394533108E1,-8.242488076E-1,1.483329560E0,4.496275533E0,4.805845019E0
1.395536108E1,-6.022822157E-2,1.805802480E0,6.344898489E0,6.597142326E0
1.396539008E1,1.103735045E-1,1.931925314E0,8.427588996E0,8.646893894E0
1.397541908E1,-4.201605977E-1,1.662103794E0,1.060365194E1,1.074134807E1
1.398544808E1,-1.547366074E0,1.073798616E0,1.263859876E1,1.277816747E1
1.399547708E1,-2.644858777E0,5.563625693E-1,1.384181307E1,1.410321262E1
1.400550708E1,-3.077460349E0,5.394290328E-1,1.375059533E1,1.410108570E1
1.401553608E1,-2.991056628E0,1.203623614E0,1.285856984E1,1.325661902E1
1.402556508E1,-2.327021968E0,2.346999711E0,1.213082304E1,1.257299911E1
1.403559408E1,-1.556928025E0,3.530005312E0,1.177464809E1,1.239061338E1
1.404562408E1,-1.646663928E0,4.292401542E0,1.168349818E1,1.255549055E1
1.405565308E1,-3.046263700E0,4.287530226E0,1.271872783E1,1.376330904E1
1.406568208E1,-5.268037248E0,3.383390473E0,1.488904354E1,1.615187807E1
1.407571108E1,-8.201945529E0,1.928124039E0,1.736080895E1,1.929733816E1
1.408574108E1,-1.166370068E1,3.090613076E-1,1.960210167E1,2.281183514E1
1.409577008E1,-1.473792693E1,-1.120200512E0,2.057645947E1,2.533479867E1
1.410579908E1,-1.599099109E1,-2.105243072E0,2.008112078E1,2.575646048E1
1.411582808E1,-1.516851355E1,-2.566660454E0,1.876710641E1,2.426676395E1
1.412585708E1,-1.252041016E1,-2.804228148E0,1.744858501E1,2.165819671E1
1.413588708E1,-8.563204054E0,-2.910763248E0,1.581745626E1,1.822067312E1
1.414591608E1,-4.706774127E0,-2.682945493E0,1.353444716E1,1.457851773E1
1.415594508E1,-1.696093951E0,-2.150144864E0,1.050480008E1,1.085590541E1
1.416597408E1,3.410885543E-1,-1.625780598E0,6.763020601E0,6.964047071E0
1.417600408E1,1.470289685E0,-1.379471901E0,3.175792975E0,3.761695828E0
1.418603308E1,1.910557688E0,-1.146782831E0,1.432181919E-1,2.232902369E0
1.419606208E1,2.201165621E0,-8.185409018E-1,-2.195320745E0,3.214742987E0
1.420609108E1,2.877069544E0,-6.059870115E-1,-4.129172716E0,5.069005498E0
1.421612008E1,3.439239276E0,-2.378591779E-1,-6.225813510E0,7.116579070E0
1.422615008E1,3.363333061E0,5.783714890E-2,-7.939068162E0,8.622305822E0
1.423617908E1,3.557037283E0,-1.421256396E-1,-8.395490706E0,9.119044803E0
1.424620808E1,3.960886049E0,-1.102754467E0,-7.644619923E0,8.680143978E0
1.425623708E1,4.524683353E0,-2.016524000E0,-6.384532671E0,8.080927293E0
1.426626708E1,4.930958129E0,-2.690791287E0,-5.198814400E0,7.653912528E0
1.427629608E1,5.266312319E0,-3.013029880E0,-4.527694377E0,7.570496078E0
1.428632508E1,5.114958896E0,-2.940907691E0,-4.271778705E0,7.284218273E0
1.429635408E1,4.273798040E0,-2.735231003E0,-3.928868158E0,6.417386020E0
1.430638408E1,3.150863956E0,-2.620586985E0,-3.354341213E0,5.295944183E0
1.431641308E1,2.202121933E0,-2.580880005E0,-2.998912362E0,4.528107548E0
1.432644208E1,1.458105842E0,-2.455596393E0,-3.163811445E0,4.262127304E0
1.433647108E1,1.040558218E0,-2.302045002E0,-4.116202422E0,4.829626795E0
1.434650008E1,9.712059284E-1,-2.191096716E0,-5.798816494E0,6.274585126E0
1.435653008E1,1.035064175E0,-2.305378792E0,-7.526688015E0,7.939594555E0
1.436655908E1,9.496807927E-1,-2.599319492E0,-8.845626324E0,9.268411972E0
1.437658808E1,7.094144623E-1,-2.940040256E0,-9.871768817E0,1.032467555E1
1.438661708E1,6.024153860E-1,-3.345348488E0,-1.084339246E1,1.136368869E1
1.439664708E1,6.173784108E-1,-3.807715019E0,-1.146957663E1,1.210086930E1
1.440667608E1,5.394421159E-1,-4.156923602E0,-1.170400437E1,1.243200426E1
1.441670508E1,4.828305434E-1,-4.250449816E0,-1.175872261E1,1.251267383E1
1.442673408E1,5.328788356E-1,-4.177131871E0,-1.160570799E1,1.234604587E1
1.443676408E1,5.120359238E-1,-3.993257404E0,-1.126408208E1,1.196193256E1
1.444679308E1,2.682024264E-1,-3.765185296E0,-1.085252347E1,1.149024884E1
1.445682208E1,-2.993884049E-2,-3.787730990E0,-1.059663762E1,1.125328979E1
1.446685108E1,-1.740084600E-1,-3.731393360E0,-1.074651111E1,1.137721743E1
1.447688008E1,-4.452467608E-1,-3.761770814E0,-1.064457309E1,1.129849993E1
1.448691008E1,-6.594128747E-1,-3.732768625E0,-1.055942126E1,1.121916950E1
1.449693908E1,-7.554670597E-1,-3.645557403E0,-1.046699198E1,1.110939874E1
1.450696808E1,-7.886774904E-1,-3.691064529E0,-1.024697178E1,1.092000001E1
1.451699708E1,-7.799758103E-1,-3.803428133E0,-9.841710620E0,1.057987220E1
1.452702708E1,-7.339608543E-1,-3.899556651E0,-9.398253107E0,1.020158821E1
1.453705671E1,-7.483474168E-1,-3.991558496E0,-9.018322669E0,9.890536226E0
1.454708571E1,-7.756418540E-1,-4.044581047E0,-8.604416984E0,9.539195342E0
1.455711471E1,-7.324739805E-1,-4.057517135E0,-8.209596026E0,9.186807407E0
1.456714371E1,-5.782941596E-1,-4.040103542E0,-7.974749041E0,8.958430836E0
1.457717371E1,-2.828831039E-1,-4.038530933E0,-7.842901930E0,8.826146703E0
1.458720271E1,2.194291927E-2,-4.077185414E0,-7.680683795E0,8.695793578E0
1.459723171E1,2.544997324E-1,-4.133321316E0,-7.584523410E0,8.641418319E0
1.460726071E1,4.932957073E-1,-4.139646249E0,-7.605783302E0,8.673404830E0
1.461729071E1,5.985852770E-1,-4.105502018E0,-7.705139775E0,8.751150216E0
1.462731971E1,5.419971299E-1,-4.178938953E0,-7.860272838E0,8.918586253E0
1.463734871E1,3.901659163E-1,-4.399332498E0,-8.030961249E0,9.165298383E0
1.464737771E1,2.073188416E-1,-4.702405087E0,-8.064833584E0,9.337940643E0
1.465740771E1,1.041532547E-2,-4.976819596E0,-7.939748193E0,9.370615942E0
1.466743671E1,-1.186993457E-1,-5.093510140E0,-7.733428019E0,9.260877065E0
1.467746571E1,-5.921481230E-2,-5.102814814E0,-7.251195865E0,8.866908531E0
1.468749471E1,5.709521946E-2,-5.053792927E0,-6.710098622E0,8.400565834E0
1.469752371E1,1.904333619E-1,-4.997057979E0,-6.368306648E0,8.097047787E0
1.470755371E1,5.654614216E-1,-4.909170819E0,-6.230766102E0,7.952493381E0
1.471758271E1,1.101593136E0,-4.686383132E0,-6.148476482E0,7.808934456E0
1.472761171E1,1.482635350E0,-4.324426450E0,-5.896179652E0,7.460818064E0
1.473764071E1,1.356544676E0,-3.862816256E0,-5.613269139E0,6.947686903E0
1.474767071E1,8.899858372E-1,-3.492903852E0,-5.414619927E0,6.504656875E0
1.475769971E1,4.467117076E-1,-3.180426309E0,-5.022179956E0,5.961287978E0
1.476772871E1,-6.754635000E-2,-2.862538337E0,-4.197696821E0,5.081274135E0
1.477775771E1,-8.412579925E-1,-2.046610263E0,-3.046207566E0,3.765064291E0
1.478778771E1,-1.531355374E0,-4.482697713E-1,-2.296324378E0,2.796265495E0
1.479781671E1,-1.661336054E0,1.929597538E0,-2.493879576E0,3.564101497E0
1.480784571E1,-1.310185465E0,4.530455432E0,-3.766983899E0,6.035874425E0
1.481787471E1,-8.741996706E-1,6.588728551E0,-6.181974596E0,9.077024782E0
1.482790371E1,-2.515752475E-1,8.226909631E0,-7.253568081E0,1.097085148E1
1.483793371E1,-1.104327806E-1,8.951075596E0,-4.137289236E0,9.861597839E0
1.484796271E1,-3.910207427E-1,7.866129409E0,2.375025562E0,8.226155574E0
1.485799171E1,-5.494058445E-1,5.290412788E0,7.841177001E0,9.474933826E0
1.486802071E1,-5.175080406E-1,2.659725907E0,1.080611996E1,1.114065461E1
1.487805071E1,-6.717339814E-1,1.313970514E0,1.134086070E1,1.143647089E1
1.488807971E1,-1.166909532E0,1.468357472E0,9.800256200E0,9.978114707E0
1.489810871E1,-1.539333900E0,2.320558748E0,7.638418366E0,8.130189229E0
1.490813771E1,-1.341772563E0,3.143760758E0,6.722930337E0,7.541974385E0
1.491816771E1,-1.472830885E0,3.372236032E0,6.846938086E0,7.773144012E0
1.492819671E1,-1.702786381E0,3.253690166E0,7.517812527E0,8.366808612E0
1.493822571E1,-1.861809597E0,2.881495594E0,8.957640265E0,9.592115040E0
1.494825471E1,-2.114967868E0,1.857644625E0,1.096038355E1,1.131609209E1
1.495828371E1,-2.261006319E0,4.335815656E-1,1.256860174E1,1.277771076E1
1.496831371E1,-2.378089649E0,-8.195334667E-1,1.342946508E1,1.366299666E1
1.497834271E1,-2.130385807E0,-1.469652631E0,1.342019490E1,1.366748162E1
1.498837171E1,-1.527302376E0,-1.496560348E0,1.212234692E1,1.230949391E1
1.499840071E1,-9.337618212E-1,-9.027469468E-1,9.956795518E0,1.004114735E1
1.500843071E1,-5.608049914E-2,4.110352868E-1,8.005700108E0,8.016441183E0
1.501845971E1,8.322144695E-1,1.962105718E0,6.459137880E0,6.801683757E0
1.502848871E1,1.472055836E0,3.360973125E0,5.322921553E0,6.465027656E0
1.503851771E1,1.590538698E0,4.332508471E0,4.680196193E0,6.573026655E0
1.504854771E1,1.175605877E0,4.584214148E0,4.465677053E0,6.506868684E0
1.505857671E1,4.420852444E-1,4.109795628E0,4.828894395E0,6.356420419E0
1.506860571E1,-2.507450525E-1,3.352689959E0,6.028702701E0,6.902800831E0
1.507863471E1,-5.081606086E-1,2.947292850E0,7.517355275E0,8.090450709E0
1.508866371E1,-6.582847276E-1,2.756136553E0,9.121375167E0,9.551393219E0
1.509869371E1,-4.364856584E-1,2.775600180E0,1.043588596E1,1.080750628E1
1.510872271E1,-6.855516829E-2,2.964176101E0,1.123351401E1,1.161821315E1
1.511875171E1,3.174407696E-1,3.170066212E0,1.148753343E1,1.192113722E1
1.512878071E1,9.347252230E-1,3.490940357E0,1.137543061E1,1.193569425E1
1.513881071E1,1.538236377E0,3.931841467E0,1.080556916E1,1.160111517E1
1.514883971E1,1.785513519E0,4.382470882E0,9.571000907E0,1.067699246E1
1.515886871E1,1.796470470E0,4.705664618E0,8.334722933E0,9.738490232E0
1.516889771E1,1.642923464E0,4.707336337E0,7.598035741E0,9.087813819E0
1.517892771E1,1.344492103E0,4.453846674E0,7.126240282E0,8.510447096E0
1.518895671E1,9.269817553E-1,4.091697034E0,6.652560266E0,7.864975390E0
1.519898571E1,5.818262799E-1,3.708821353E0,6.232650660E0,7.275974979E0
1.520901471E1,2.474234685E-1,3.269031214E0,5.891000773E0,6.741785635E0
1.521904371E1,-1.310965849E-1,2.694422408E0,5.544222878E0,6.165671557E0
1.522907371E1,-4.163938945E-1,2.203014511E0,4.958977402E0,5.442252629E0
1.523910271E1,-6.652143359E-1,1.809500991E0,4.302449105E0,4.714644445E0
1.524913171E1,-8.195005761E-1,1.464046905E0,3.723246142E0,4.083818846E0
1.525916071E1,-8.293202439E-1,1.203779443E0,3.184167357E0,3.503680746E0
1.526919071E1,-8.499407423E-1,1.087990539E0,2.688362646E0,3.022154264E0
1.527921971E1,-8.372442444E-1,1.064520693E0,2.166662371E0,2.555114099E0
1.528924871E1,-8.005980628E-1,9.731421608E-1,1.604285356E0,2.040023144E0
1.529927771E1,-6.967175990E-1,8.410652536E-1,9.362661105E-1,1.438541068E0
1.530930771E1,-5.014675932E-1,7.197378677E-1,4.447965252E-1,9.835325587E-1
1.531933671E1,-3.457605527E-1,5.981637293E-1,7.660963476E-2,6.951397291E-1
1.532936571E1,-3.314817251E-1,3.134057888E-1,-3.950291187E-1,6.034495233E-1
1.533939471E1,-3.100364770E-1,1.363512218E-2,-7.605526024E-1,8.214309433E-1
1.534942371E1,-3.847292848E-1,-3.110233408E-1,-8.865022123E-1,1.015203582E0
1.535945371E1,-5.239656325E-1,-6.698640418E-1,-9.172766930E-1,1.250861443E0
1.536948271E1,-6.641999902E-1,-1.017745014E0,-9.101623857E-1,1.518341895E0
1.537951171E1,-8.846941070E-1,-1.325115892E0,-8.725396460E-1,1.816574035E0
1.538954071E1,-1.069285881E0,-1.594220251E0,-8.667555803E-1,2.106223099E0
1.539957071E1,-1.083957422E0,-1.848844858E0,-7.757039076E-1,2.279233984E0
1.540959971E1,-8.081457949E-1,-2.001676165E0,-7.539446640E-1,2.286534419E0
1.541962871E1,-4.435306031E-1,-1.998168713E0,-1.032282654E0,2.292379785E0
1.542965771E1,-6.632405352E-2,-1.792436184E0,-2.090083727E0,2.754210656E0
1.543968671E1,2.489268608E-1,-1.426557190E0,-3.956819603E0,4.213484469E0
1.544971671E1,5.529832076E-1,-1.215387043E0,-5.756336473E0,5.909176396E0
1.545974571E1,8.043714903E-1,-1.203379493E0,-6.830099859E0,6.981790586E0
1.546977471E1,8.353004837E-1,-1.263450863E0,-7.526372851E0,7.677260141E0
1.547980371E1,5.517352290E-1,-1.494490141E0,-7.022486118E0,7.200918262E0
1.548983371E1,-3.557930591E-1,-1.936343470E0,-6.103360536E0,6.413035519E0
1.549986271E1,-4.990426067E-1,-1.992294600E0,-5.112635213E0,5.509747736E0
1.550989171E1,-8.339357436E-2,-1.623270096E0,-4.168436769E0,4.474128450E0
1.551992071E1,4.567431177E-1,-1.183343716E0,-3.506552423E0,3.728917607E0
1.552995071E1,8.298232506E-1,-9.697613007E-1,-3.446720788E0,3.675449333E0
1.553997933E1,8.171504340E-1,-8.373864779E-1,-3.985349922E0,4.153548477E0
1.555000833E1,6.570315962E-1,-6.143663639E-1,-4.740851700E0,4.825433803E0
1.556003733E1,3.603000198E-1,-5.488871965E-1,-5.271502892E0,5.312234558E0
1.557006733E1,-1.255989231E-1,-6.431060135E-1,-5.355979371E0,5.395912847E0
1.558009633E1,-5.833139943E-1,-7.110535830E-1,-5.116889647E0,5.198885657E0
1.559012533E1,-7.698742336E-1,-7.867171383E-1,-4.712017325E0,4.838877707E0
1.560015433E1,-9.064998360E-1,-8.623464873E-1,-4.448989685E0,4.621568200E0
1.561018333E1,-9.185876387E-1,-8.959723628E-1,-4.338992448E0,4.524756921E0
1.562021333E1,-1.029220321E0,-8.270219958E-1,-4.246445643E0,4.446972054E0
1.563024233E1,-1.032828492E0,-6.027701658E-1,-3.996745561E0,4.171815150E0
1.564027133E1,-8.559775539E-1,-4.553232676E-1,-3.458512868E0,3.591841883E0
1.565030033E1,-6.194353151E-1,-2.693581286E-1,-2.530899467E0,2.619485832E0
1.566033033E1,-2.180662067E-1,2.560349554E-2,-1.591200457E0,1.606277468E0
1.567035933E1,1.919816315E-2,1.979688880E-1,-8.408220094E-1,8.640265630E-1
1.568038833E1,1.039823516E-1,3.312044209E-1,-4.746296042E-1,5.880322772E-1
1.569041733E1,3.899054959E-2,4.076360080E-1,-5.278275722E-1,6.680488934E-1
1.570044633E1,-6.895577565E-2,4.657365739E-1,-5.389875680E-1,7.156626676E-1
1.571047633E1,-1.930592734E-1,4.824356371E-1,-3.435093015E-1,6.229082334E-1
1.572050533E1,-2.213899103E-1,4.545157671E-1,-1.186335737E-1,5.192995279E-1
1.573053433E1,-1.528874400E-1,3.931349131E-1,8.294801652E-2,4.298953392E-1
1.574056333E1,-1.629021125E-1,3.953577322E-1,2.621043652E-1,5.015411577E-1
1.575059333E1,-1.064899300E-1,4.101155198E-1,1.721671718E-1,4.573580433E-1
1.576062233E1,-7.401610225E-2,4.042387757E-1,4.552115858E-2,4.134725469E-1
1.577065133E1,-2.725548014E-2,4.323428330E-1,2.043543398E-1,4.789821319E-1
1.578068033E1,4.908006638E-3,4.372299358E-1,4.831028044E-1,6.515998964E-1
1.579071033E1,-4.134332299E-2,3.062376872E-1,6.077233422E-1,6.817759544E-1
1.580073933E1,-1.644516246E-1,2.028992602E-1,5.052707684E-1,5.687802704E-1
1.581076833E1,-3.849853563E-1,1.074773785E-1,4.116574305E-1,5.737830179E-1
1.582079733E1,-5.771264707E-1,4.269958466E-2,3.781540543E-1,6.913021817E-1
1.583082633E1,-7.324862596E-1,2.418729991E-2,2.796629691E-1,7.844313369E-1
1.584085633E1,-7.827236362E-1,4.944434792E-2,1.326651371E-1,7.954250893E-1
1.585088533E1,-7.124310409E-1,1.991696137E-1,-1.284592348E-1,7.508184188E-1
1.586091433E1,-6.380144043E-1,3.154909059E-1,-3.015853500E-1,7.730139813E-1
1.587094333E1,-5.544119382E-1,3.507452309E-1,-4.536708444E-1,7.976290173E-1
1.588097333E1,-3.658674462E-1,3.723556629E-1,-5.604930425E-1,7.659374508E-1
1.589100233E1,-1.686794539E-1,4.286371601E-1,-6.255187583E-1,7.768244912E-1
1.590103133E1,1.851286948E-2,4.332357028E-1,-6.690746677E-1,7.973059711E-1
1.591106033E1,1.623951589E-1,3.781806591E-1,-6.414050585E-1,7.620979252E-1
1.592109033E1,9.255937725E-2,3.107432592E-1,-7.005016977E-1,7.719010558E-1
1.593111933E1,2.868834034E-2,2.823371932E-1,-9.139630759E-1,9.570087855E-1
1.594114833E1,-7.640381277E-2,2.784122497E-1,-1.278565038E0,1.310755309E0
1.595117733E1,-2.280270848E-1,2.620248431E-1,-1.667017794E0,1.702821686E0
1.596120633E1,-2.881775384E-1,2.194699770E-1,-1.963782699E0,1.996911579E0
1.597123633E1,-3.153145393E-1,2.446650445E-1,-2.151784131E0,2.188483308E0
1.598126533E1,-2.733245873E-1,2.895371622E-1,-2.210911760E0,2.246479225E0
1.599129433E1,-2.782431921E-1,2.428538695E-1,-2.257452089E0,2.287463051E0
1.600132333E1,-2.776774739E-1,1.486283281E-1,-2.323487619E0,2.344736632E0
1.601135333E1,-2.766472676E-1,4.047764271E-2,-2.285288343E0,2.302328161E0
1.602138233E1,-3.654691046E-1,-1.352408355E-1,-2.236199799E0,2.269900282E0
1.603141133E1,-4.398032954E-1,-2.703340289E-1,-2.178260323E0,2.238598995E0
1.604144033E1,-5.170071535E-1,-3.787373140E-1,-2.259336646E0,2.348476193E0
1.605147033E1,-6.596239592E-1,-5.332932571E-1,-2.447430464E0,2.590255073E0
1.606149933E1,-7.243312211E-1,-4.670717856E-1,-2.726138583E0,2.859133320E0
1.607152833E1,-8.175444632E-1,-3.642648706E-1,-2.966780158E0,3.098846939E0
1.608155733E1,-7.543138426E-1,-4.447544253E-1,-3.258001319E0,3.373628383E0
1.609158633E1,-5.934901960E-1,-6.983923146E-1,-3.729741814E0,3.840697389E0
1.610161633E1,-4.035357576E-1,-7.771034387E-1,-4.155246620E0,4.246505073E0
1.611164533E1,-3.248455008E-1,-7.066459519E-1,-4.376938539E0,4.445499306E0
1.612167433E1,-1.707443067E-1,-7.297582412E-1,-4.312985787E0,4.377618886E0
1.613170333E1,2.383822113E-2,-8.318474105E-1,-3.951937762E0,4.038607489E0
1.614173333E1,2.776908129E-1,-9.594623074E-1,-3.287877667E0,3.436250814E0
1.615176233E1,4.618877173E-1,-1.061324020E0,-2.327672471E0,2.599578441E0
1.616179133E1,3.613350135E-1,-1.170915167E0,-1.738806399E0,2.127217200E0
1.617182033E1,1.841901436E-1,-1.260394523E0,-1.803720433E0,2.208150304E0
1.618185033E1,5.225344168E-2,-1.283848583E0,-2.407567071E0,2.728988239E0
1.619187933E1,1.073282015E-2,-1.155010740E0,-3.327621776E0,3.522390054E0
1.620190833E1,-1.183917913E-1,-1.008721883E0,-4.151305597E0,4.273742460E0
1.621193733E1,-3.214724248E-1,-7.867425737E-1,-4.595989271E0,4.673909046E0
1.622196633E1,-4.697957841E-1,-5.543151668E-1,-4.629657539E0,4.686331434E0
1.623199633E1,-5.312120503E-1,-2.587606350E-1,-4.273240508E0,4.313899367E0
1.624202533E1,-4.912967270E-1,3.053299069E-2,-3.639625695E0,3.672761895E0
1.625205433E1,-2.527259064E-1,1.329873186E-1,-2.911369019E0,2.925341959E0
1.626208333E1,9.028152131E-2,3.147602963E-1,-2.541193491E0,2.562203964E0
1.627211333E1,1.709445190E-1,5.829317325E-1,-2.705558138E0,2.772918367E0
1.628214233E1,1.533426823E-1,6.439883584E-1,-3.238529506E0,3.305496686E0
1.629217133E1,1.395237748E-1,6.248203084E-1,-3.738154203E0,3.792580143E0
1.630220033E1,-1.585965883E-2,5.842306915E-1,-4.015071319E0,4.057385208E0
1.631223033E1,-2.738424314E-1,6.821405634E-1,-4.219925596E0,4.283465590E0
1.632225933E1,-5.478329435E-1,8.086854199E-1,-4.426735767E0,4.533219892E0
1.633228833E1,-5.368618859E-1,9.075641754E-1,-4.540469958E0,4.661304630E0
1.634231733E1,-5.789158648E-1,1.072993016E0,-4.494125512E0,4.656567588E0
1.635234633E1,-4.188146418E-1,1.368734074E0,-4.176164449E0,4.414656066E0
1.636237633E1,-1.941122107E-2,1.527922181E0,-3.218101088E0,3.562456681E0
1.637240533E1,-2.007641494E-2,1.353135457E0,-1.879395683E0,2.315924601E0
1.638243433E1,-3.109047154E-1,9.185279971E-1,-7.939887357E-1,1.253305045E0
1.639246333E1,-6.036261251E-1,2.450109074E-1,1.783400774E-4,6.514559658E-1
1.640249333E1,-1.028834770E0,-1.182777706E-1,6.778805745E-1,1.237745001E0
1.641252233E1,-1.346773978E0,-4.352813512E-2,9.745548481E-1,1.662964822E0
1.642255133E1,-1.317802925E0,5.821955681E-2,1.117250884E0,1.728653697E0
1.643258033E1,-9.469390333E-1,3.620788890E-1,1.475957099E0,1.790598786E0
1.644261033E1,-4.350277282E-1,8.364333817E-1,2.168206621E0,2.364315943E0
1.645263933E1,-2.024677357E-1,1.143523301E0,3.054839226E0,3.268131182E0
1.646266833E1,-3.864625092E-1,1.062400200E0,4.256814510E0,4.404374783E0
1.647269733E1,-8.913719197E-1,5.055806708E-1,5.914303097E0,6.002427578E0
