"Time (s)","Linear Acceleration x (m/s^2)","Linear Acceleration y (m/s^2)","Linear Acceleration z (m/s^2)","Absolute acceleration (m/s^2)"
1.347629167E-2,2.974864701E-1,8.446712315E-2,-4.213445127E-1,5.226510243E-1
2.350629168E-2,2.353193119E-1,5.153151155E-3,2.836893618E-2,2.370791641E-1
3.353529167E-2,6.157826600E-2,-8.435164064E-2,3.598037374E-1,3.746542560E-1
4.356529168E-2,-1.680778485E-2,-1.781801561E-1,4.742588907E-1,5.069044931E-1
5.359529168E-2,-3.446439811E-2,-2.174073717E-1,3.246111006E-1,3.922067396E-1
6.362529169E-2,3.833130801E-2,-2.255233070E-1,1.018912411E-1,2.504233939E-1
7.365529169E-2,6.698739273E-2,-2.556271121E-1,2.829584599E-2,2.657690466E-1
8.368529170E-2,1.235014264E-1,-2.439531460E-1,2.981085956E-2,2.750534987E-1
9.371529170E-2,1.260872844E-1,-1.437763086E-1,8.751118362E-2,2.103041546E-1
1.037452916E-1,-9.342487480E-2,-4.477066845E-2,1.326721537E-1,1.683286083E-1
1.137752916E-1,-2.505766892E-1,7.374099076E-2,1.792873263E-1,3.168128095E-1
1.238052916E-1,-1.287848334E-1,6.304701805E-2,1.575438702E-1,2.130270660E-1
1.338352916E-1,6.676444022E-2,-1.192633188E-1,1.261156708E-1,1.859741705E-1
1.438652916E-1,2.026982439E-1,-3.548207402E-1,1.223968416E-1,4.265739357E-1
1.538952916E-1,2.335865443E-1,-4.698927748E-1,1.147720724E-1,5.371540953E-1
1.639252916E-1,1.963419368E-1,-3.129005894E-1,8.187856078E-3,3.694915100E-1
1.739552916E-1,8.333877498E-2,-1.358983549E-1,-9.215153396E-2,1.841347862E-1
1.839852916E-1,2.474483192E-2,-2.523073554E-4,-1.579496670E-1,1.598764137E-1
1.940152916E-1,1.550866144E-2,3.395185769E-2,-2.410134584E-1,2.438867244E-1
2.040452916E-1,9.725525787E-2,-9.493246973E-3,-2.889518559E-1,3.050276741E-1
2.140752916E-1,2.533244786E-1,-2.105465412E-2,-2.658167624E-1,3.677976904E-1
2.241052917E-1,3.706063587E-1,-8.134207875E-2,-2.437020081E-1,4.509504137E-1
2.341352917E-1,3.345580549E-1,-1.826404122E-1,-2.575143009E-1,4.600002472E-1
2.441652917E-1,2.117253033E-1,-2.473459929E-1,-3.595534766E-1,4.850632400E-1
2.541952917E-1,1.998136480E-1,-1.687272549E-1,-5.220598787E-1,5.839014449E-1
2.642252917E-1,2.403596300E-1,2.593240142E-3,-5.463310862E-1,5.968727941E-1
2.742552917E-1,3.383248678E-1,1.525219890E-1,-4.211229032E-1,5.613120103E-1
2.842887917E-1,4.639240467E-1,3.018481824E-1,-2.271397698E-1,5.982727817E-1
2.943187916E-1,5.428496540E-1,4.079286611E-1,1.279019952E-2,6.791576610E-1
3.043487916E-1,4.091378653E-1,4.267417851E-1,7.659910977E-2,5.961289857E-1
3.143787916E-1,2.346391528E-1,4.764007258E-1,-3.860682607E-2,5.324506274E-1
3.244087916E-1,2.579396128E-1,5.359785908E-1,-1.375627649E-1,6.105156902E-1
3.344387916E-1,3.627776678E-1,4.374445286E-1,-1.191411120E-1,5.806547653E-1
3.444687916E-1,3.910514771E-1,1.841220966E-1,-8.094417572E-2,4.397432931E-1
3.544987916E-1,-7.561410975E-1,-2.120095146E-1,-2.423805374E-1,8.218550471E-1
3.645287916E-1,-5.990364628E-1,-4.467626515E-1,3.104339415E-1,8.092037954E-1
3.745587916E-1,1.309598112E0,-3.957772699E-1,1.116090796E0,1.765600614E0
3.845887916E-1,8.242391597E-1,-2.659448165E-1,7.678481734E-1,1.157448770E0
3.946187916E-1,4.662547103E-1,-1.853155133E-1,7.558526105E-1,9.072201845E-1
4.046487916E-1,6.270465627E-1,-1.525734445E-1,7.644486022E-1,1.000423767E0
4.146787917E-1,3.998443738E-1,-5.571168602E-2,5.749286485E-1,7.025113993E-1
4.247087917E-1,-1.728548044E-1,3.511662304E-2,-1.970406425E-1,2.644559990E-1
4.347387917E-1,5.528274889E-1,1.366903603E-1,-6.297907341E-1,8.490811833E-1
4.447687917E-1,1.546974456E0,3.436917347E-1,4.299165308E-1,1.641975091E0
4.547987917E-1,1.035102620E0,2.681164724E-1,6.092944890E-1,1.230676095E0
4.648287917E-1,5.044240916E-1,1.566711733E-1,8.980492938E-1,1.041864701E0
4.748587917E-1,3.693336026E-1,6.215590239E-3,8.309215039E-1,9.093274928E-1
4.848887917E-1,1.938800763E-1,-8.379703224E-2,4.435288489E-1,4.912527520E-1
4.949187917E-1,-1.262165718E-1,-1.064558700E-1,9.458280623E-2,1.902876309E-1
5.049487917E-1,-2.876710964E-1,-9.004185855E-2,-8.623239756E-2,3.135254733E-1
5.149787917E-1,-1.419255187E-1,-1.222047606E-1,-8.806199133E-2,2.069583791E-1
5.250087916E-1,-1.091086786E-2,-9.083064795E-2,-5.954804420E-2,1.091568743E-1
5.350387916E-1,6.612192258E-2,-2.570196265E-1,1.254368091E-1,2.935397590E-1
5.450687916E-1,1.712607438E-1,-3.534226710E-1,2.939833850E-1,4.905752311E-1
5.550987916E-1,2.347107081E-1,-2.729562128E-1,5.062390673E-1,6.211861266E-1
5.651287916E-1,3.130124540E-1,-2.628598255E-1,6.517218858E-1,7.692941574E-1
5.751587916E-1,1.219476658E-1,-2.939974183E-1,6.858743030E-1,7.561278163E-1
5.851887916E-1,-4.278050647E-1,-3.644072503E-1,5.302003723E-1,7.726074374E-1
5.952187916E-1,-9.483906046E-1,-3.716045880E-1,4.919110501E-1,1.131154804E0
6.052487916E-1,-1.120606601E0,-3.027398828E-1,3.952554059E-1,1.226228945E0
6.152787916E-1,-1.015862503E0,-3.586284471E-1,2.157938325E-1,1.098707407E0
6.253087916E-1,-9.077687549E-1,-4.381093571E-1,1.612270314E-1,1.020773274E0
6.353387916E-1,-7.018912154E-1,-5.835357499E-1,-2.728895545E-3,9.127829405E-1
6.453687917E-1,-3.430746341E-1,-1.005238989E0,-2.749688244E-1,1.097184344E0
6.553987917E-1,-4.650454330E-1,-8.562487185E-1,-4.068071651E-1,1.055898287E0
6.654287917E-1,-5.830825176E-1,-6.828012988E-1,9.952545762E-2,9.033870448E-1
6.754587917E-1,-6.495479641E-1,-8.615515584E-1,3.789054215E-1,1.143570271E0
6.854887917E-1,-6.546640585E-1,-1.096519580E0,5.075693089E-1,1.374251368E0
6.955187917E-1,-6.732940916E-1,-1.148749542E0,6.101417506E-1,1.464658117E0
7.055477917E-1,-5.774926891E-1,-9.536709327E-1,4.224391115E-1,1.192241946E0
7.155777917E-1,-6.293454686E-1,-9.248877212E-1,2.341809869E-3,1.118703938E0
7.256087917E-1,-1.049815969E0,-9.608089212E-1,-2.461666095E-1,1.444252523E0
7.356377917E-1,-1.132824431E0,-8.105331400E-1,-3.323767877E-1,1.432036833E0
7.456677917E-1,-9.998608665E-1,-6.955017436E-1,-4.595127976E-1,1.301766661E0
7.556977917E-1,-1.118826123E0,-6.810877723E-1,-5.017729640E-1,1.402650546E0
7.657277917E-1,-1.151982760E0,-7.460646638E-1,-4.424962306E-1,1.442040109E0
7.757577916E-1,-1.324342305E0,-9.438517034E-1,-4.696319890E-1,1.692717574E0
7.857877916E-1,-1.856921909E0,-1.451279217E0,-2.538627148E-2,2.356907891E0
7.958177916E-1,-1.707217986E0,-1.745385979E0,2.555239087E-1,2.454843770E0
8.058477916E-1,-1.017433358E0,-1.467101490E0,-4.181349760E-1,1.833683255E0
8.158777916E-1,-4.179907691E-1,-1.236609804E0,-1.056252730E0,1.679163459E0
8.259077916E-1,4.254193642E-1,-1.280565371E0,-1.236399597E0,1.830167552E0
8.359377916E-1,1.091550617E0,-1.679537852E0,-8.454717153E-1,2.174201593E0
8.459677916E-1,1.609111940E0,-2.051489764E0,2.881250596E-1,2.623140778E0
8.559977916E-1,1.696796201E0,-2.400660633E0,8.380404890E-1,3.056893960E0
8.660277916E-1,3.236866558E-1,-2.595115636E0,2.991991013E-1,2.632283860E0
8.760577916E-1,3.624922872E-2,-2.399004116E0,6.699792320E-1,2.491065420E0
8.860877916E-1,-1.061898948E0,-1.803903743E0,1.428755450E-1,2.098120948E0
8.961177916E-1,-1.911841882E0,-6.538102189E-1,5.384215575E-1,2.091053553E0
9.061477917E-1,-4.187053427E0,1.352575001E0,1.783915329E-1,4.403714236E0
9.161777917E-1,-4.492229844E0,3.587864388E0,3.679027158E-1,5.760924600E0
9.262077917E-1,-8.968854055E-1,1.646642001E0,1.850197027E0,2.634210005E0
9.362377917E-1,-1.581093398E0,-1.763271442E0,2.001141729E0,3.100572646E0
9.462677917E-1,3.613360003E-1,-2.338420238E0,5.833346057E-1,2.437017065E0
9.562977917E-1,1.640993006E0,-1.397183409E0,-2.910439897E-1,2.174784157E0
9.663277917E-1,3.889063530E-1,-1.057213427E0,1.664246213E-1,1.138703446E0
9.763577917E-1,-3.396378601E-1,-6.102762365E-1,9.262819898E-1,1.160081586E0
9.863877917E-1,-6.235326053E-1,-6.137471437E-2,1.294592257E0,1.438238115E0
9.964177917E-1,-5.597236951E-1,-2.742861620E-1,1.126673672E0,1.287601288E0
1.006447792E0,-4.688771135E-1,-9.489832199E-1,8.008679849E-1,1.327329811E0
1.016477792E0,-1.901510145E-1,-1.148487587E0,1.895374954E-1,1.179451401E0
1.026507792E0,2.686167017E-1,-9.300148523E-1,5.208056509E-2,9.694302157E-1
1.036537792E0,6.021018291E-1,-1.054268770E0,-6.023976982E-2,1.215581376E0
1.046567792E0,6.200492728E-1,-5.517602259E-1,-2.487879163E-1,8.664847805E-1
1.056597792E0,4.936475269E-1,1.179933035E-1,-5.085370231E-1,7.184846584E-1
1.066627792E0,4.108509533E-1,2.078635463E-1,-6.143400514E-1,7.677365814E-1
1.076657792E0,3.217947891E-1,-6.967249811E-3,-7.168627918E-1,7.858070317E-1
1.086687792E0,4.700712611E-1,-8.396894038E-2,-7.885075557E-1,9.218253299E-1
1.096717792E0,5.875579034E-1,1.725223902E-1,-5.800443774E-1,8.434688760E-1
1.106747792E0,6.515844762E-1,2.170249638E-1,-4.937464911E-1,8.458414521E-1
1.116777792E0,6.283686912E-1,3.564220002E-1,-1.180283868E-1,7.319935481E-1
1.126807792E0,7.108313888E-1,7.480003846E-1,4.160065895E-1,1.112585871E0
1.136837792E0,6.820172603E-1,8.107705370E-1,1.821046903E0,2.106824204E0
1.146867792E0,1.097453162E0,7.196674088E-1,1.964585522E0,2.362608917E0
1.156897792E0,1.149980819E0,6.466581970E-1,1.639348769E0,2.104302045E0
1.166927792E0,9.623589449E-1,8.555751193E-1,1.619730776E0,2.069219976E0
1.176957792E0,7.961171222E-1,1.124411092E0,9.860124671E-1,1.694202869E0
1.186987792E0,6.573993860E-1,8.980329216E-1,-2.057939243E-1,1.131807501E0
1.197017792E0,1.040945231E0,3.267313010E-1,-9.979138899E-1,1.478564320E0
1.207047792E0,2.998064809E-1,7.884312496E-1,3.625799954E-2,8.442881047E-1
1.217077792E0,1.727556941E-1,9.477693379E-1,2.183677769E-1,9.878237361E-1
1.227107792E0,9.739348970E-1,4.670147753E-1,7.714658457E-1,1.327332489E0
1.237137792E0,5.138291918E-1,3.393133396E-1,1.223611736E0,1.369810082E0
1.247166792E0,5.823107582E-1,5.781624511E-1,7.337916505E-1,1.100821432E0
1.257196792E0,7.728774367E-1,6.135831293E-1,2.862919575E-1,1.027514902E0
1.267226792E0,7.158836755E-1,-9.486344334E-1,-7.110670316E-1,1.384923481E0
1.277256792E0,-2.499977052E-2,-1.489482878E0,-1.716743100E0,2.272969666E0
1.287283625E0,-4.206975914E-1,-1.656764701E-1,-1.082480416E0,1.173115087E0
1.297313625E0,-1.185789022E-1,9.934843317E-1,-8.707042050E-1,1.326347574E0
1.307343625E0,3.976657013E-1,1.169436991E0,-6.815233898E-1,1.410742718E0
1.317373625E0,-2.104217397E-1,1.024176659E0,4.615675092E-1,1.142917190E0
1.327403625E0,7.834680598E-2,1.421348490E0,1.351231896E0,1.962701553E0
1.337433625E0,9.875401253E-1,9.761163470E-1,-3.549651664E-1,1.433191854E0
1.347463625E0,-8.323152426E-2,-3.586807796E-1,-1.229617411E0,1.283564711E0
1.357493625E0,-6.231070011E-1,-1.380024755E0,-2.580628282E0,2.992051636E0
1.367523625E0,-1.930120206E-1,-2.176243619E0,-3.304807110E0,3.961696602E0
1.377553625E0,6.064504764E-1,-7.698201469E-1,-2.112648132E0,2.328881141E0
1.387583625E0,1.090260867E0,6.783384115E-1,-6.056189293E-1,1.419713368E0
1.397613625E0,9.688418991E-1,1.153186994E0,8.716906303E-1,1.740212465E0
1.407643625E0,1.004806003E0,6.914256495E-1,1.398879687E0,1.855954986E0
1.417673625E0,1.889191669E0,7.394043928E-1,6.369424635E-1,2.126372432E0
1.427703625E0,1.952397293E0,3.802394637E-1,7.766406316E-1,2.135323842E0
1.437733625E0,1.435448466E0,-1.750785005E-1,1.209245712E0,1.885057021E0
1.447763625E0,7.710468927E-1,-3.627896181E-1,1.041300230E0,1.345524354E0
1.457793625E0,1.057061400E0,-4.449020675E-1,4.939523131E-1,1.248721562E0
1.467823625E0,1.484637436E0,-2.831604812E-1,2.388622677E-1,1.530157952E0
1.477853625E0,1.165799877E0,2.560902116E-1,6.619457424E-2,1.195430161E0
1.487883625E0,1.202875755E0,6.257143477E-1,1.812385422E-1,1.367945882E0
1.497913625E0,1.430855332E0,3.886182314E-1,1.182511657E-1,1.487398550E0
1.507943625E0,1.482365501E0,-1.167104244E-1,1.512832564E-1,1.494628859E0
1.517973625E0,1.370525368E0,-4.745831189E-1,4.211153018E-1,1.510267201E0
1.528003625E0,1.374303108E0,-6.833079600E-1,7.236145717E-1,1.696831415E0
1.538033625E0,1.166172052E0,-6.579994565E-1,7.167838544E-1,1.518782286E0
1.548063625E0,9.823260900E-1,-4.671559855E-1,3.707894862E-1,1.149210209E0
1.558093625E0,1.136740238E0,-3.128090805E-1,-9.579201043E-2,1.182879537E0
1.568123625E0,7.968019773E-1,-5.885514915E-2,-2.288389707E-1,8.310984262E-1
1.578153625E0,4.735750589E-1,5.415135652E-2,-2.238817012E-1,5.266200926E-1
1.588183625E0,4.290730700E-1,-8.700920016E-2,-2.244360173E-1,4.919815303E-1
1.598213625E0,3.563981728E-1,-3.813758701E-1,-1.470966500E-1,5.423141491E-1
1.608243625E0,5.777885216E-1,-6.726449776E-1,-4.257071203E-1,9.836246204E-1
1.618273625E0,8.899511924E-1,-9.532967108E-1,-7.908090198E-1,1.525177580E0
1.628303625E0,6.735656217E-1,-1.041228017E0,-7.623985684E-1,1.455712199E0
1.638333625E0,7.033947538E-1,-8.933987108E-1,-9.112856358E-1,1.457177733E0
1.648363625E0,8.399387875E-1,-5.734291300E-1,-1.393887334E0,1.725468062E0
1.658393625E0,4.133662793E-1,-4.775555509E-1,-1.487931027E0,1.616437356E0
1.668423625E0,1.024300620E-2,-3.722387186E-1,-1.498634940E0,1.544206355E0
1.678453625E0,-5.080163285E-2,-2.813630471E-1,-1.695818839E0,1.719752164E0
1.688483625E0,2.117411274E-1,1.543018815E-1,-1.549461277E0,1.571455893E0
1.698512625E0,3.901154110E-1,5.743810567E-1,-1.294981096E0,1.469380710E0
1.708542625E0,5.384221423E-1,1.671666330E-1,-7.706238467E-1,9.548320269E-1
1.718572625E0,3.436727312E-1,-6.117991439E-1,-4.758054793E-2,7.033299703E-1
1.728602625E0,1.702875844E-1,-8.992289695E-1,5.205998290E-1,1.052917273E0
1.738632625E0,4.728146285E-1,-7.208482540E-1,6.219607276E-1,1.063019767E0
1.748662625E0,1.116699784E0,-1.524372044E-1,3.875218785E-1,1.191817400E0
1.758692625E0,1.272850993E0,4.404467815E-1,3.373200238E-2,1.347323594E0
1.768722625E0,8.975413169E-1,7.655902711E-1,-1.155567688E-1,1.185353215E0
1.778752625E0,6.004682632E-1,5.623442709E-1,-1.300257039E-1,8.328864856E-1
1.788782625E0,4.192406845E-1,3.659237257E-1,-2.096554255E-1,5.946581556E-1
1.798812625E0,1.890303956E-1,2.642789447E-1,-1.163484818E-1,3.451272523E-1
1.808842625E0,-2.159758271E-1,6.831886768E-2,3.766559976E-1,4.395256149E-1
1.818872625E0,-3.080475466E-1,-2.198173016E-2,8.558826828E-1,9.098965074E-1
1.828902625E0,-7.165908962E-3,-6.141886085E-2,1.018247582E0,1.020123407E0
1.838932625E0,3.788133278E-1,-2.099150419E-4,1.104132655E0,1.167308229E0
1.848962625E0,7.147444917E-1,2.214776185E-1,1.207918394E0,1.420907763E0
1.858992625E0,8.576182826E-1,4.271528444E-1,1.236404859E0,1.564182102E0
1.869022625E0,8.379662293E-1,9.226713341E-1,8.889773387E-1,1.530944317E0
1.879052625E0,6.509985852E-1,1.148878181E0,9.706377983E-5,1.320499997E0
1.889082625E0,4.931509522E-1,1.111770873E0,-7.011419678E-1,1.403863382E0
1.899112625E0,2.701241139E-1,1.099891085E0,-1.254825343E0,1.690359156E0
1.909142625E0,1.773205423E-1,1.354693447E0,-1.782344767E0,2.245749269E0
1.919172625E0,1.691766134E-1,1.867572905E0,-2.157904412E0,2.858846049E0
1.929202625E0,6.783297868E-1,2.346079213E0,-3.432485157E0,4.212620720E0
1.939232625E0,1.299700677E0,2.250290419E0,-1.991891434E0,3.274241943E0
1.949262625E0,5.467642187E-1,1.512039974E0,1.495334771E0,2.195732696E0
1.959292625E0,-5.096668513E-1,3.435090092E-1,2.245391622E0,2.327991038E0
1.969322625E0,-4.911658955E-1,-5.433457902E-1,2.039155063E0,2.166707630E0
1.979352625E0,-4.319776013E-1,-5.981362474E-1,2.362274539E0,2.474815673E0
1.989382625E0,-5.005960657E-1,-3.718339451E-1,2.769514983E0,2.838850145E0
1.999412625E0,-6.028563026E-1,-2.165336515E-1,2.463290452E0,2.545215589E0
2.009442625E0,-9.917370375E-1,-9.210007846E-2,1.693873470E0,1.965001809E0
2.019472625E0,-1.191771601E0,9.105971262E-2,7.539282918E-1,1.413159329E0
2.029502625E0,-1.103854766E0,4.438042527E-1,-3.560369611E-1,1.241861457E0
2.039532625E0,-1.011391868E0,5.674208236E-1,-8.588203239E-1,1.443070425E0
2.049561625E0,-1.120115800E0,5.997296137E-1,-7.120803541E-1,1.456500410E0
2.059591625E0,-1.345435989E0,5.236012048E-1,-2.645561028E-1,1.467769108E0
2.069621625E0,-1.568471452E0,1.410325027E-1,8.703697443E-2,1.577202681E0
2.079651625E0,-1.446652023E0,-3.188445765E-1,1.017339510E-1,1.484861521E0
2.089681625E0,-1.076494109E0,-5.724637547E-1,1.768122000E-1,1.231997107E0
2.099711625E0,-8.550992290E-1,-5.771324641E-1,2.067639774E-1,1.052153941E0
2.109741625E0,-6.601687735E-1,-2.676276451E-1,1.327084064E-1,7.246094721E-1
2.119771625E0,-4.561301102E-1,-1.280756575E-1,-6.785342932E-2,4.786043662E-1
2.129801625E0,-5.549409650E-1,-2.352647683E-1,-4.146307397E-1,7.315925342E-1
2.139831625E0,-4.977520531E-1,-1.158915219E-1,-6.000114495E-1,7.881634923E-1
2.149861625E0,-8.472146241E-1,-2.604320616E-2,-6.946819639E-1,1.095916922E0
2.159891625E0,-1.370480637E0,-7.723353267E-2,-7.057355404E-1,1.543452250E0
2.169921625E0,-1.757111400E0,-2.387423998E-1,-6.057323653E-1,1.873859681E0
2.179951625E0,-2.035461962E0,-3.949548590E-1,-3.722021735E-1,2.106568109E0
2.189981625E0,-2.143444247E0,-5.684949571E-1,1.281885087E-2,2.217589701E0
2.200011625E0,-2.109007802E0,-6.506588620E-1,4.619271129E-1,2.254916300E0
2.210041625E0,-1.883521771E0,-6.819133991E-1,8.760614240E-1,2.186353988E0
2.220071625E0,-1.531545408E0,-6.969714412E-1,1.170640056E0,2.049828936E0
2.230101625E0,-1.196693787E0,-8.093572649E-1,1.369914334E0,1.990929553E0
2.240131625E0,-8.759431641E-1,-9.110868305E-1,1.520960779E0,1.977543256E0
2.250161625E0,-7.439415398E-1,-9.020213073E-1,1.557345078E0,1.947412423E0
2.260191625E0,-8.059885378E-1,-8.311694258E-1,1.408014207E0,1.822899927E0
2.270221625E0,-9.700025714E-1,-7.204871884E-1,1.036941131E0,1.592247998E0
2.280251625E0,-1.081424628E0,-6.304532236E-1,5.175809115E-1,1.354562842E0
2.290284667E0,-1.197139856E0,-5.999614558E-1,-2.809996426E-2,1.339360740E0
2.300314667E0,-1.377843597E0,-5.481902084E-1,-5.569502145E-1,1.584032520E0
2.310344667E0,-1.542795305E0,-3.950878832E-1,-9.413999659E-1,1.850012347E0
2.320374667E0,-1.611729738E0,-2.971078447E-1,-1.091240129E0,1.968946632E0
2.330404667E0,-1.603691133E0,-3.013456142E-1,-1.153798320E0,1.998470663E0
2.340434667E0,-1.590494405E0,-2.398086396E-1,-1.273898376E0,2.051827894E0
2.350464667E0,-1.503386095E0,-5.564181179E-2,-1.424359514E0,2.071730143E0
2.360494667E0,-1.320196337E0,1.544246730E-1,-1.476671628E0,1.986787469E0
2.370524667E0,-1.255835303E0,2.565933645E-1,-1.490714886E0,1.966009495E0
2.380553667E0,-1.212981864E0,4.299144843E-1,-1.423825078E0,1.919226229E0
2.390583667E0,-1.183069993E0,5.099102417E-1,-1.367349161E0,1.878644935E0
2.400613667E0,-1.127066385E0,5.146081871E-1,-1.365976235E0,1.844177675E0
2.410643667E0,-1.023546329E0,5.609011781E-1,-1.232111249E0,1.697160967E0
2.420673667E0,-9.508674120E-1,6.820528552E-1,-9.485119343E-1,1.506326599E0
2.430703667E0,-9.839170443E-1,7.854292890E-1,-7.368561763E-1,1.458749102E0
2.440733667E0,-1.079662642E0,8.052101272E-1,-5.174493492E-1,1.442840462E0
2.450763667E0,-1.160813737E0,8.069432420E-1,-2.296037865E-1,1.432258296E0
2.460793667E0,-1.240550535E0,8.047227618E-1,7.846612573E-2,1.480777258E0
2.470823667E0,-1.283892437E0,8.160833171E-1,2.810633773E-1,1.547051515E0
2.480853667E0,-1.201629787E0,9.191878554E-1,4.862252176E-1,1.589098933E0
2.490883667E0,-1.064383137E0,1.003326657E0,7.164055395E-1,1.628745757E0
2.500913667E0,-1.027390654E0,9.830450052E-1,8.013842940E-1,1.632215006E0
2.510943667E0,-9.835461116E-1,9.263436779E-1,8.064392120E-1,1.573473789E0
2.520973667E0,-8.251730331E-1,8.907958227E-1,8.590612292E-1,1.487418545E0
2.531003667E0,-7.467615788E-1,8.586738512E-1,8.861116183E-1,1.442278558E0
2.541033667E0,-6.192438188E-1,8.381384298E-1,8.122718096E-1,1.321258653E0
2.551063667E0,-3.900146196E-1,8.061003658E-1,7.060963136E-1,1.140386429E0
2.561093667E0,-2.174178967E-1,7.323786709E-1,6.126542991E-1,9.792825688E-1
2.571123667E0,-7.645475663E-2,7.079715157E-1,5.376427084E-1,8.922604321E-1
2.581153667E0,4.370537885E-2,7.196484053E-1,3.981661499E-1,8.236141513E-1
2.591183667E0,3.375809558E-2,6.536649156E-1,1.371476126E-1,6.687502512E-1
2.601213667E0,-6.849545360E-2,5.769871607E-1,-1.669631499E-1,6.045514902E-1
2.611243667E0,-9.664204940E-2,5.883687660E-1,-3.088581169E-1,6.714989403E-1
2.621273667E0,-1.018950418E-1,5.477709630E-1,-2.842050862E-1,6.254663528E-1
2.631303667E0,-3.290688716E-2,4.679555923E-1,-1.839574975E-1,5.038905243E-1
2.641333667E0,2.420370866E-1,4.953155914E-1,7.833047032E-2,5.568259593E-1
2.651363667E0,4.288206895E-1,5.905225879E-1,2.247804183E-1,7.636297185E-1
2.661393667E0,4.252851706E-1,5.738574386E-1,4.687537372E-2,7.158052366E-1
2.671423667E0,2.181789849E-1,4.787969148E-1,-3.991525751E-1,6.604326864E-1
2.681452667E0,-2.911014386E-2,4.211617872E-1,-7.991255146E-1,9.037843989E-1
2.691482667E0,-2.437521480E-2,4.772091034E-1,-9.672253633E-1,1.078817678E0
2.701512667E0,3.797841849E-1,7.185269094E-1,-8.055364019E-1,1.144292725E0
2.711542667E0,1.535403547E-1,4.419650111E-1,-4.817263699E-1,6.715415154E-1
2.721572667E0,3.050658321E-1,5.072099975E-1,-3.331193841E-1,6.791875054E-1
2.731602667E0,5.109066803E-1,5.832077211E-1,-1.867167985E-1,7.975086487E-1
2.741632667E0,7.860126950E-2,4.859962991E-1,-1.051990110E-1,5.034256591E-1
2.751662667E0,-8.155771675E-1,1.006221029E-1,-2.241261148E-1,8.517766369E-1
2.761692667E0,-9.437080812E-1,1.725539652E-1,-3.742492837E-1,1.029768100E0
2.771722667E0,-7.761424488E-1,1.596421435E-1,-3.960225606E-1,8.858423016E-1
2.781752667E0,-6.196322201E-1,-2.138651285E-1,-2.556046003E-1,7.035738007E-1
2.791782667E0,-3.135271186E-1,-3.446597412E-1,3.501505691E-1,5.828336060E-1
2.801812667E0,-7.191607475E-2,-3.225002557E-2,8.186540455E-1,8.224393182E-1
2.811842667E0,-3.483127892E-1,9.144665211E-2,9.378606462E-1,1.004622756E0
2.821872667E0,-1.077130798E0,1.126150346E-1,7.829766744E-1,1.336392672E0
2.831902667E0,-9.081946515E-1,3.995919934E-1,2.025101280E-1,1.012670548E0
2.841932667E0,-7.555812997E-1,6.132448679E-1,-8.482754552E-1,1.290946791E0
2.851962667E0,-8.832803965E-1,6.898661971E-1,-1.778693181E0,2.102343706E0
2.861992667E0,-6.687676889E-1,8.624397504E-1,-1.969248092E0,2.251441892E0
2.872022667E0,-1.573213837E-1,1.153242835E0,-1.367761390E0,1.795964998E0
2.882052667E0,1.647988030E-1,1.346478109E0,-2.237723583E-1,1.374858543E0
2.892082667E0,3.531327952E-1,1.244854671E0,9.308603597E-1,1.594009702E0
2.902112667E0,3.485781066E-1,9.993792021E-1,1.862903611E0,2.142586136E0
2.912142667E0,4.010271925E-1,6.217674771E-1,2.495690458E0,2.603053682E0
2.922172667E0,4.263890518E-1,2.927975696E-1,2.721514605E0,2.770230998E0
2.932202667E0,3.903924228E-1,-1.277832967E-1,2.619459642E0,2.651471974E0
2.942232667E0,-1.777056545E-1,-4.429792106E-1,2.209018432E0,2.259993875E0
2.952261667E0,-4.370881408E-1,-3.515243724E-1,1.236373284E0,1.357657661E0
2.962291667E0,-4.971384609E-1,-1.131436229E-2,1.240615439E-1,5.125094446E-1
2.972321667E0,-4.844978039E-1,2.319055429E-1,-7.974666595E-1,9.614943452E-1
2.982351667E0,-2.752258095E-1,1.824956936E-1,-1.517881635E0,1.553389385E0
2.992381667E0,-2.734007473E-1,6.718918562E-2,-1.673808750E0,1.697320856E0
3.002411667E0,-6.266237359E-1,4.945691943E-2,-1.433571802E0,1.565321502E0
3.012441667E0,-9.540543638E-1,2.300493443E-1,-1.043818041E0,1.432724165E0
3.022471667E0,-1.074532734E0,5.312791836E-1,-7.266130239E-1,1.401729166E0
3.032501667E0,-7.949846627E-1,6.731756124E-1,-5.669740963E-1,1.186012498E0
3.042531667E0,-3.673269112E-1,3.710067102E-1,-6.970208502E-1,8.708691660E-1
3.052561667E0,-1.229874104E-2,-7.938472331E-2,-6.282967705E-1,6.334114185E-1
3.062591667E0,2.048241636E-1,-2.886217806E-1,-9.600309491E-2,3.667043284E-1
3.072621667E0,3.863166212E-1,-3.308243519E-1,3.195643687E-1,6.006718483E-1
3.082651667E0,1.285608741E0,-3.322659829E-1,-6.471136951E-1,1.477141378E0
3.092681667E0,6.804831702E-1,-4.195239821E-1,1.701786507E0,1.880195477E0
3.102711667E0,4.756388336E-2,2.260855168E-2,1.933335078E0,1.934052221E0
3.112741667E0,-1.638775742E-1,-8.626923501E-2,1.970687676E0,1.979370647E0
3.122771667E0,-3.224268731E-1,-4.621481377E-1,1.843946353E0,1.928128145E0
3.132801667E0,-4.380179943E-1,-6.180843160E-1,1.908425354E0,2.053284033E0
3.142831667E0,-4.948628707E-1,-7.212610674E-1,1.993694131E0,2.177136439E0
3.152861667E0,-4.400561875E-1,-8.718645850E-1,1.707236697E0,1.966838693E0
3.162891667E0,-3.416607043E-1,-9.639611551E-1,1.387196950E0,1.723446699E0
3.172921667E0,-4.204786862E-1,-9.165490070E-1,8.985223335E-1,1.350631997E0
3.182951667E0,-6.041169257E-1,-6.322752160E-1,3.454266036E-1,9.402386650E-1
3.192981667E0,-6.191540641E-1,-2.384380522E-1,-3.134721547E-1,7.338046413E-1
3.203010667E0,-3.976008703E-1,-9.301399827E-2,-1.026200965E0,1.104457549E0
3.213040667E0,-4.112858400E-2,-1.450372607E-2,-1.184699686E0,1.185502115E0
3.223070667E0,2.605816041E-1,1.477009597E-1,-1.113598128E0,1.153177843E0
3.233100667E0,3.463226894E-1,1.696277261E-1,-1.278229408E0,1.335134222E0
3.243130667E0,3.089157119E-1,1.723265085E-1,-1.590466046E0,1.629327342E0
3.253160667E0,2.684991726E-1,2.964991495E-1,-2.050385810E0,2.089039378E0
3.263190667E0,3.157959844E-1,5.095532691E-1,-2.382169105E0,2.456440776E0
3.273220667E0,4.585345584E-1,7.003242347E-1,-2.458348385E0,2.596956826E0
3.283250667E0,4.815606013E-1,7.038281786E-1,-2.406376578E0,2.553022318E0
3.293278000E0,2.503815749E-1,6.770914927E-1,-2.400742786E0,2.506932338E0
3.303308000E0,-1.448903494E-1,5.821172154E-1,-2.354294844E0,2.429518034E0
3.313338000E0,-4.951778895E-1,3.533750162E-1,-1.990349523E0,2.081241521E0
3.323368000E0,-4.538477227E-1,1.767724389E-1,-1.234862364E0,1.327445407E0
3.333398000E0,-4.722926183E-1,-9.214831799E-2,-3.615000147E-1,6.018586964E-1
3.343428000E0,-1.462283385E-1,1.013801944E-1,3.193509454E-1,3.655758431E-1
3.353458000E0,1.670257151E-1,1.697724447E-1,5.421859950E-1,5.921874075E-1
3.363488000E0,-1.627667494E-1,-2.019081572E-1,4.392539495E-1,5.101019024E-1
3.373518000E0,-1.214685962E-1,-1.578909025E-1,-1.659118205E-1,2.592506299E-1
3.383548000E0,-1.259960952E-1,-3.905413806E-2,-1.050972694E0,1.059218507E0
3.393578000E0,-3.341256899E-1,4.350220272E-1,-1.206919105E0,1.325721640E0
3.403608000E0,-2.881904022E-1,7.611925802E-1,-9.628341043E-1,1.260760629E0
3.413638000E0,1.350569406E-1,1.103777437E0,-6.023111594E-1,1.264651628E0
3.423668000E0,1.045434796E0,9.209674555E-1,2.436844665E-1,1.414389298E0
3.433698000E0,2.114469978E0,7.833163977E-1,1.439131334E0,2.675007825E0
3.443727000E0,1.194274209E0,7.194665569E-1,5.096123260E-1,1.484462103E0
3.453757000E0,8.284957865E-1,8.621444660E-1,4.691566104E-1,1.284447848E0
3.463787000E0,4.929044920E-1,1.129803101E0,4.037590116E-1,1.297085666E0
3.473817000E0,6.334418817E-1,1.209098655E0,1.120443463E-2,1.365025170E0
3.483847000E0,1.148873941E0,1.130573180E0,-6.194247901E-2,1.613054221E0
3.493877000E0,1.081636662E0,1.153860301E0,-1.073548794E-3,1.581560184E0
3.503907000E0,6.680683619E-1,1.452607120E0,-1.857455760E-1,1.609622378E0
3.513937000E0,6.943504999E-1,1.431061300E0,-3.229311955E-1,1.623066116E0
3.523967000E0,8.097026892E-1,1.467106461E0,-3.183808923E-1,1.705692295E0
3.533997000E0,8.191729128E-1,1.382625304E0,-1.792984360E-1,1.617048213E0
3.544027000E0,7.137188170E-1,1.142564357E0,-1.392631352E-2,1.347234873E0
3.554057000E0,6.699210522E-1,1.012253602E0,2.230970049E-1,1.234189549E0
3.564087000E0,8.276041592E-1,9.096972397E-1,5.933520555E-1,1.365483202E0
3.574117000E0,1.258149046E0,9.914266965E-1,7.641194040E-1,1.774751921E0
3.584147000E0,1.789814585E0,6.306774643E-1,8.187201190E-1,2.066759044E0
3.594177000E0,1.639065325E0,4.810986713E-1,1.144557381E0,2.056210755E0
3.604207000E0,1.581319832E0,6.245411038E-1,1.150752506E0,2.053011283E0
3.614237000E0,1.315094203E0,9.042701465E-1,1.412131231E0,2.131030707E0
3.624267000E0,9.491764703E-1,9.650425977E-1,1.558477099E0,2.064241763E0
3.634297000E0,8.231831525E-1,8.267246649E-1,1.119096265E0,1.616626309E0
3.644327000E0,8.250776504E-1,7.535692728E-1,3.848660731E-1,1.181838260E0
3.654357000E0,6.609618752E-1,6.894972378E-1,-1.737003118E-1,9.707980427E-1
3.664387000E0,8.238441803E-1,5.997740525E-1,7.392558736E-1,1.258946939E0
3.674416000E0,1.142217179E0,2.426419079E-1,1.828640682E0,2.169668620E0
3.684446000E0,1.045075631E0,-2.394580990E-1,2.273288103E0,2.513436304E0
3.694476000E0,6.783489364E-1,-5.791816208E-1,2.706882532E0,2.850056433E0
3.704506000E0,5.808646687E-1,-8.065482625E-1,3.104304332E0,3.259544331E0
3.714536000E0,5.240078055E-1,-1.079819348E0,3.206444079E0,3.423722775E0
3.724566000E0,3.402707481E-1,-1.228338333E0,2.686820735E0,2.973819918E0
3.734596000E0,5.500738889E-2,-1.246791269E0,1.679134979E0,2.092130148E0
3.744626000E0,-2.757636072E-1,-1.259293785E0,4.588345206E-1,1.368355042E0
3.754656000E0,-4.363541691E-1,-1.245236786E0,-6.490140402E-1,1.470455317E0
3.764686000E0,-6.402631704E-1,-1.245498157E0,-1.477060468E0,2.035414015E0
3.774716000E0,-8.108094940E-1,-1.280361303E0,-2.048649187E0,2.548274042E0
3.784746000E0,-1.136081549E0,-1.337688282E0,-2.514628420E0,3.066504088E0
3.794776000E0,-1.412817695E0,-1.462254441E0,-2.807465751E0,3.466425512E0
3.804806000E0,-1.686260396E0,-1.621658018E0,-2.951911858E0,3.766567731E0
3.814836000E0,-2.018829264E0,-1.649638407E0,-2.989656220E0,3.966739566E0
3.824866000E0,-2.165981317E0,-1.638584830E0,-2.759112786E0,3.871580902E0
3.834896000E0,-2.094717353E0,-1.602340280E0,-2.372897176E0,3.547671936E0
3.844926000E0,-1.757081287E0,-1.568065071E0,-1.793993590E0,2.960502612E0
3.854956000E0,-1.453808430E0,-1.480693928E0,-1.245019562E0,2.419935365E0
3.864986000E0,-1.285060126E0,-1.372994355E0,-9.214387411E-1,2.094168661E0
3.875016000E0,-9.855348958E-1,-1.296691992E0,-5.925919175E-1,1.733163100E0
3.885046000E0,-7.782233997E-1,-1.282370991E0,-8.078513145E-2,1.502209458E0
3.895075000E0,-8.399490932E-1,-1.297573167E0,4.274191850E-1,1.603713741E0
3.905105000E0,-1.045464032E0,-1.328033068E0,7.057133210E-1,1.831583512E0
3.915135000E0,-1.315942487E0,-1.494338113E0,6.976786619E-1,2.109859366E0
3.925165000E0,-1.599988383E0,-1.533407747E0,8.984469044E-1,2.391340416E0
3.935195000E0,-1.959362496E0,-1.412209292E0,1.580156820E0,2.886231462E0
3.945225000E0,-1.458399518E0,-1.318871942E0,1.990719067E0,2.798091271E0
3.955255000E0,-3.905386032E-1,-1.038789143E0,1.815062277E0,2.127452551E0
3.965285000E0,-7.622751921E-2,-5.599384341E-1,1.717469324E0,1.808049381E0
3.975315000E0,1.139341664E-1,6.049821675E-3,1.317088834E0,1.322021404E0
3.985345000E0,3.330576959E-1,3.376775810E-1,6.138436228E-1,7.757303467E-1
3.995375000E0,1.875102657E-1,2.813569075E-1,-1.191153842E-1,3.584833105E-1
4.005405000E0,3.671495944E-2,2.839346525E-1,-5.227931195E-1,5.960532870E-1
4.015435000E0,-2.313411404E-1,2.011263844E-1,-3.104158151E-1,4.362665745E-1
4.025465000E0,-5.791946308E-1,5.117249250E-2,-9.834432006E-3,5.815339719E-1
4.035495000E0,-9.080750759E-1,-5.920685917E-2,6.983037293E-2,9.126785177E-1
4.045525000E0,-1.029268268E0,-6.414044738E-2,3.984666967E-1,1.105569027E0
4.055555000E0,-1.121991806E0,-1.475477627E-1,6.071871525E-1,1.284255502E0
4.065585000E0,-1.160945080E0,-1.703732461E-1,5.012724423E-1,1.275968096E0
4.075615000E0,-1.089365439E0,-6.735349238E-2,2.308743864E-1,1.115596941E0
4.085645000E0,-9.220399810E-1,4.975103438E-2,-9.497632384E-3,9.234300716E-1
4.095674000E0,-7.534536441E-1,2.242489064E-1,-3.370814574E-1,8.553384562E-1
4.105704000E0,-5.057281668E-1,3.897175080E-1,-7.761792862E-1,1.005034825E0
4.115734000E0,-1.950914732E-1,5.463962826E-1,-1.046586698E0,1.196642510E0
4.125764000E0,-8.913422450E-3,6.917057312E-1,-1.135056240E0,1.329243746E0
4.135794000E0,6.925296038E-3,7.876445067E-1,-1.161374558E0,1.403289953E0
4.145824000E0,-4.059517175E-2,7.865148246E-1,-1.044091691E0,1.307815352E0
4.155854000E0,-1.590654619E-1,8.151807994E-1,-8.569375205E-1,1.193383204E0
4.165884000E0,-2.183268464E-1,8.316108906E-1,-5.635768640E-1,1.028038018E0
4.175914000E0,-2.288880873E-1,8.272009206E-1,-9.840805471E-2,8.639069769E-1
4.185944000E0,-3.353215916E-1,8.254292142E-1,2.573084790E-1,9.273519347E-1
4.195974000E0,-5.033924966E-1,8.341810343E-1,3.386292154E-1,1.031470673E0
4.206004000E0,-6.285405993E-1,8.268287453E-1,1.690558684E-1,1.052277979E0
4.216034000E0,-5.605620396E-1,8.767744920E-1,-9.079556465E-3,1.040694839E0
4.226064000E0,-4.733419012E-1,1.029116387E0,-1.999870545E-1,1.150272974E0
4.236094000E0,-4.908694417E-1,1.246395704E0,-5.258599842E-1,1.439091305E0
4.246124000E0,-5.412525601E-1,1.433066310E0,-8.541209167E-1,1.753897352E0
4.256154000E0,-5.509807920E-1,1.522781602E0,-9.567629403E-1,1.880914395E0
4.266184000E0,-4.065790506E-1,1.596081128E0,-5.630126077E-1,1.740621925E0
4.276214000E0,-2.608446557E-1,1.677935130E0,-2.384377599E-1,1.714747445E0
4.286244000E0,-3.445732755E-1,1.703344498E0,-2.397375959E-1,1.754305371E0
4.296273667E0,-4.109872665E-1,1.671397358E0,-2.758844984E-1,1.743155736E0
4.306302667E0,-4.795215310E-1,1.647588373E0,-1.873301715E-1,1.726146268E0
4.316332667E0,-4.362902152E-1,1.716281463E0,9.358468652E-3,1.770892089E0
4.326362667E0,-3.300192634E-1,1.789214076E0,2.008957118E-1,1.830453171E0
4.336392667E0,-2.956771041E-1,1.939637499E0,4.238769418E-1,2.007309204E0
4.346422667E0,-2.227125505E-1,2.117590491E0,6.694892353E-1,2.232040816E0
4.356452667E0,-9.163564143E-1,1.399801500E0,6.020439416E-1,1.778091737E0
4.366482667E0,-9.636056444E-1,1.633264741E0,6.921325779E-1,2.018696871E0
4.376512667E0,-1.128385225E0,1.591324710E0,8.629437804E-1,2.133129043E0
4.386542667E0,-1.342802696E0,1.328899040E0,1.008720129E0,2.141636766E0
4.396572667E0,-1.347136360E0,1.372120489E0,1.190552164E0,2.261615675E0
4.406602667E0,-1.503358321E0,1.258018507E0,1.421914208E0,2.421680578E0
4.416632667E0,-1.537588360E0,1.173800476E0,1.594821053E0,2.507077923E0
4.426662667E0,-1.379717922E0,1.116870522E0,1.656869366E0,2.428216919E0
4.436692667E0,-1.183639439E0,1.022772743E0,1.642355407E0,2.268126471E0
4.446722667E0,-7.410935073E-1,1.053432618E0,1.855461860E0,2.258689571E0
4.456752667E0,-3.356299592E-1,1.082770730E0,2.144527736E0,2.425703843E0
4.466782667E0,-6.554622766E-2,1.024147131E0,2.275206574E0,2.495944432E0
4.476812667E0,1.694658313E-2,8.966082475E-1,2.250467005E0,2.422559654E0
4.486842667E0,-6.089125928E-2,7.848147467E-1,1.905601149E0,2.061785069E0
4.496871667E0,-2.275990686E-1,5.676064727E-1,1.424013358E0,1.549771754E0
4.506901667E0,-4.300669139E-1,3.601142246E-1,9.968251383E-1,1.143809495E0
4.516931667E0,-5.296692990E-1,2.363462108E-1,6.684262115E-1,8.849873998E-1
4.526961667E0,-5.260535270E-1,1.545141354E-1,4.824888468E-1,7.303440412E-1
4.536991667E0,-4.215630889E-1,3.255057245E-2,5.605977076E-1,7.021714659E-1
4.547021667E0,-2.852121595E-1,-1.936328852E-1,8.077086425E-1,8.781986799E-1
4.557051667E0,-2.495119843E-1,-4.441638565E-1,9.243570864E-1,1.055449565E0
4.567081667E0,-1.934873261E-1,-6.584651873E-1,8.261764884E-1,1.074049039E0
4.577111667E0,-1.972650659E-1,-8.178284186E-1,7.197483927E-1,1.107156076E0
4.587141667E0,-1.165816030E-1,-9.813001961E-1,5.951641077E-1,1.153586434E0
4.597171667E0,5.765657958E-2,-1.201542006E0,4.219765967E-1,1.274790854E0
4.607201667E0,1.660851905E-1,-1.350723480E0,2.723755842E-1,1.387885683E0
4.617231667E0,2.383628059E-1,-1.425988840E0,1.237586582E-1,1.451060717E0
4.627261667E0,1.876407683E-1,-1.511345032E0,-2.452883577E-1,1.542575523E0
4.637291667E0,1.408277770E-1,-1.651960629E0,-7.053595644E-1,1.801759833E0
4.647321667E0,1.980856861E-1,-1.773720124E0,-9.884314603E-1,2.040175916E0
4.657351667E0,2.621067772E-1,-1.770814642E0,-1.127922637E0,2.115819920E0
4.667381667E0,3.100656400E-1,-1.713249389E0,-1.185984319E0,2.106637837E0
4.677410667E0,3.010559212E-1,-1.703655277E0,-1.127235589E0,2.064881606E0
4.687440667E0,4.105695561E-1,-1.677870518E0,-9.878028846E-1,1.989867175E0
4.697470667E0,5.215220810E-1,-1.666342733E0,-7.748624933E-1,1.910260523E0
4.707500667E0,5.751528526E-1,-1.668133442E0,-4.675106192E-1,1.825386579E0
4.717530667E0,5.890834054E-1,-1.662702841E0,-2.696630609E-1,1.784465792E0
4.727560667E0,5.590324811E-1,-1.683385320E0,-8.169378877E-2,1.775662503E0
4.737590667E0,5.419157074E-1,-1.616448441E0,1.845831496E-1,1.714832102E0
4.747620667E0,4.943861399E-1,-1.505319184E0,3.697726554E-1,1.627001942E0
4.757650667E0,4.531869873E-1,-1.372568678E0,5.202220988E-1,1.536214260E0
4.767680667E0,3.761900476E-1,-1.238397006E0,5.321270299E-1,1.399394609E0
4.777710667E0,1.428645815E-1,-1.109528466E0,1.477521229E-1,1.128403472E0
4.787740667E0,-8.268207785E-2,-9.374957800E-1,-5.490500414E-1,1.089582769E0
4.797770667E0,-1.603433709E-1,-6.926769537E-1,-1.067529670E0,1.282626584E0
4.807800667E0,-2.308284858E-1,-5.179554257E-1,-1.386886463E0,1.498336969E0
4.817830667E0,-3.822811287E-1,-3.865471476E-1,-1.755339986E0,1.837600616E0
4.827860667E0,-4.283700885E-1,-1.948681095E-1,-1.875805492E0,1.933939182E0
4.837890667E0,-4.100848219E-1,-7.631902814E-2,-1.802017139E0,1.849664814E0
4.847920667E0,-3.566648424E-1,-1.988754988E-2,-1.661734250E0,1.699695867E0
4.857949667E0,-1.170514267E-1,1.449744031E-1,-1.464146308E0,1.475954953E0
4.867979667E0,1.375044024E-1,3.193021211E-1,-1.236315397E0,1.284265185E0
4.878009667E0,3.422231699E-1,4.344145015E-1,-9.491989821E-1,1.098549664E0
4.888039667E0,4.632472681E-1,4.506261992E-1,-6.905374575E-1,9.457822069E-1
4.898069667E0,3.289454222E-1,5.234991708E-1,-4.829145241E-1,7.845144423E-1
4.908099667E0,2.055960692E-1,5.528638878E-1,-4.276723695E-1,7.285821009E-1
4.918129667E0,1.171073407E-1,5.472379893E-1,-4.119761038E-1,6.949157188E-1
4.928159667E0,1.906249313E-1,6.297325543E-1,-2.758096540E-1,7.134226795E-1
4.938189667E0,3.233326069E-1,7.414099878E-1,-1.292187881E-1,8.191033145E-1
4.948219667E0,3.683707489E-1,8.115642965E-1,-6.594957590E-2,8.936906414E-1
4.958249667E0,3.307362417E-1,7.845098144E-1,-1.266109300E-1,8.607394716E-1
4.968279667E0,2.661147146E-1,7.775238535E-1,-1.944766384E-1,8.445007679E-1
4.978309667E0,2.379404907E-1,7.799454778E-1,-2.397761875E-1,8.499548492E-1
4.988339667E0,1.330243754E-1,7.427478307E-1,-3.793632585E-1,8.445627901E-1
4.998369667E0,9.045375835E-2,7.552728590E-1,-4.705301213E-1,8.944370124E-1
5.008399667E0,1.039125139E-1,7.921304905E-1,-4.753067118E-1,9.296155092E-1
5.018429667E0,-2.095821161E-2,7.357066137E-1,-5.264382738E-1,9.048981844E-1
5.028458667E0,-1.154972003E-1,6.973550186E-1,-6.239663225E-1,9.428560849E-1
5.038488667E0,-5.992869794E-2,7.089541402E-1,-6.055271280E-1,9.342754008E-1
5.048518667E0,3.756503496E-2,7.010223922E-1,-4.496310031E-1,8.336735364E-1
5.058548667E0,-1.369162090E-2,6.788678768E-1,-4.072977465E-1,7.917957496E-1
5.068578667E0,-9.135251194E-3,6.172396857E-1,-3.668016851E-1,7.180611106E-1
5.078608667E0,9.389330987E-2,5.700038311E-1,-1.294690490E-1,5.920156719E-1
5.088638667E0,1.832127084E-1,5.280310553E-1,7.002742410E-2,5.632828171E-1
5.098668667E0,1.415289678E-1,4.887096995E-1,-8.318307459E-2,5.155453841E-1
5.108698667E0,1.181635671E-1,4.506832096E-1,-3.203964275E-1,5.654483661E-1
5.118728667E0,1.743853496E-1,4.373278767E-1,-3.733330250E-1,6.008689287E-1
5.128758667E0,1.468359007E-1,4.452622560E-1,-4.446053213E-1,6.461370985E-1
5.138788667E0,1.103397002E-1,4.349261329E-1,-5.469637549E-1,7.074637373E-1
5.148818667E0,1.943478170E-1,3.645206863E-1,-2.997534174E-1,5.103905523E-1
5.158848667E0,2.770088083E-1,3.356594145E-1,3.845421374E-2,4.368979846E-1
5.168878667E0,3.389862244E-1,3.505777082E-1,1.712433118E-1,5.168565194E-1
5.178908667E0,3.317807371E-1,3.707163960E-1,2.447118223E-1,5.544303200E-1
5.188938667E0,3.577247233E-1,3.769957209E-1,2.876485115E-1,5.939986679E-1
5.198967667E0,4.712620100E-1,4.435197857E-1,4.207030731E-1,7.718735377E-1
5.208997667E0,4.425520715E-1,4.762039670E-1,4.155048984E-1,7.715354009E-1
5.219027667E0,2.667726726E-1,5.645246977E-1,1.555686808E-1,6.434729268E-1
5.229057667E0,3.518167332E-2,6.867279965E-1,-1.043154967E-1,6.954960921E-1
5.239087667E0,-1.652025167E-1,7.313305575E-1,-2.696028346E-1,7.967571426E-1
5.249117667E0,-2.552303420E-1,6.349561644E-1,-1.745955205E-1,7.062545249E-1
5.259147667E0,-2.758290229E-1,5.229831541E-1,1.821431065E-1,6.186833928E-1
5.269177667E0,-2.758813189E-1,3.780034885E-1,5.910792428E-1,7.539043777E-1
5.279207667E0,-1.810235839E-1,2.124571189E-1,1.123945946E0,1.158085512E0
5.289237375E0,-1.057378684E-1,3.606650323E-2,1.876686083E0,1.880008496E0
5.299267375E0,-1.270768800E-1,-2.247640461E-1,2.533638303E0,2.546760778E0
5.309297375E0,-1.859123679E-1,-5.799975997E-1,2.983702585E0,3.045232625E0
5.319327375E0,-3.096300955E-1,-9.382138181E-1,3.272297761E0,3.418193763E0
5.329357375E0,-5.198087007E-1,-1.237819886E0,3.286411185E0,3.550056004E0
5.339387375E0,-7.777424663E-1,-1.390657040E0,2.832703503E0,3.250079920E0
5.349417375E0,-9.601292554E-1,-1.394659459E0,2.161023316E0,2.745349698E0
5.359447375E0,-9.738531091E-1,-1.308920859E0,1.509630044E0,2.222756523E0
5.369476375E0,-8.654235846E-1,-1.220841618E0,1.019856736E0,1.810944505E0
5.379506375E0,-8.192402288E-1,-1.159532685E0,5.877773201E-1,1.536604301E0
5.389536375E0,-8.814586233E-1,-1.150855124E0,1.985223269E-1,1.463163674E0
5.399566375E0,-1.026547120E0,-1.171792249E0,-7.496949077E-2,1.559652683E0
5.409596375E0,-1.233695552E0,-1.263279832E0,-2.939097100E-1,1.790045688E0
5.419626375E0,-1.375267753E0,-1.359774093E0,-4.537649846E-1,1.986516961E0
5.429656375E0,-1.498319775E0,-1.407519825E0,-6.144078791E-1,2.145593449E0
5.439686375E0,-1.552194558E0,-1.401581393E0,-8.565001488E-1,2.259940453E0
5.449716375E0,-1.537361634E0,-1.325154483E0,-1.162845717E0,2.339171939E0
5.459746375E0,-1.510037887E0,-1.216771371E0,-1.538819345E0,2.475623551E0
5.469776375E0,-1.516974147E0,-1.091495945E0,-1.888251876E0,2.656702676E0
5.479806375E0,-1.551276107E0,-9.375615612E-1,-2.083796800E0,2.761826994E0
5.489836375E0,-1.553609292E0,-8.204503101E-1,-1.973414817E0,2.642197302E0
5.499866375E0,-1.466393977E0,-7.603283617E-1,-1.536721948E0,2.256086182E0
5.509896375E0,-1.291975481E0,-7.271410275E-1,-8.505675638E-1,1.709210314E0
5.519925375E0,-1.106847006E0,-7.310615855E-1,-1.527076381E-1,1.335245655E0
5.529955375E0,-1.036244727E0,-8.679978213E-1,3.433040643E-1,1.394661620E0
5.539985375E0,-8.467507938E-1,-8.506029394E-1,7.794414479E-1,1.431097913E0
5.550015375E0,-7.994636299E-1,-8.167788434E-1,1.230379304E0,1.679316232E0
5.560045375E0,-7.942053750E-1,-8.728641665E-1,1.542872050E0,1.942449019E0
5.570075375E0,-7.482794429E-1,-8.624970531E-1,1.630975556E0,1.990955689E0
5.580105375E0,-8.122069055E-1,-7.716971031E-1,1.477480298E0,1.854223425E0
5.590135375E0,-9.417779884E-1,-6.581263411E-1,1.022741752E0,1.538205692E0
5.600165375E0,-1.064176146E0,-5.135238209E-1,4.895435125E-1,1.278995870E0
5.610195375E0,-1.195227013E0,-3.431833193E-1,4.226309001E-2,1.244238149E0
5.620225375E0,-1.263500564E0,-2.241848794E-1,-2.602344257E-1,1.309356519E0
5.630255375E0,-1.223789930E0,-1.921602640E-1,-3.619958586E-1,1.290592252E0
5.640285375E0,-1.061852316E0,-1.649207175E-1,-2.269848186E-1,1.098294720E0
5.650315375E0,-8.661863539E-1,-9.900183946E-2,-7.322351217E-2,8.748953346E-1
5.660345375E0,-6.600097293E-1,-5.418760926E-2,4.342727065E-3,6.622446670E-1
5.670375375E0,-4.600068873E-1,-4.156434774E-2,1.141230315E-1,4.757709509E-1
5.680404375E0,-3.996856950E-1,-8.645283759E-2,9.189250231E-2,4.191264486E-1
5.690434375E0,-4.269790359E-1,-1.304043111E-1,-1.371850348E-1,4.670504418E-1
5.700464375E0,-4.420366395E-1,-1.062231508E-1,-3.658339709E-1,5.835359823E-1
5.710494375E0,-4.392283680E-1,-8.259250581E-2,-4.784940290E-1,6.547515690E-1
5.720524375E0,-4.264839229E-1,-4.396492213E-2,-4.307380646E-1,6.077472593E-1
5.730554375E0,-4.049743554E-1,3.253741622E-2,-5.052222365E-1,6.483150625E-1
5.740584375E0,-4.334244217E-1,1.410170075E-1,-6.974471122E-1,8.331716510E-1
5.750614375E0,-5.617823535E-1,1.976662946E-1,-8.968254715E-1,1.076553437E0
5.760644375E0,-6.377613661E-1,1.835438070E-1,-9.815124500E-1,1.184818374E0
5.770674375E0,-5.115369371E-1,2.105903953E-1,-7.058688569E-1,8.968105685E-1
5.780704375E0,-3.522753011E-1,2.665163818E-1,-3.307372284E-1,5.518296692E-1
5.790734375E0,-2.519217315E-1,2.760841808E-1,-7.728264928E-3,3.738271790E-1
5.800764375E0,-1.406468788E-1,3.245388874E-1,2.532399863E-1,4.350143959E-1
5.810794375E0,4.848365039E-3,4.069226477E-1,4.098173118E-1,5.775463417E-1
5.820824375E0,5.523265287E-2,4.352029985E-1,5.735218084E-1,7.220661746E-1
5.830854375E0,6.231611609E-2,4.690130612E-1,6.423312575E-1,7.977756541E-1
5.840883375E0,7.078522325E-2,5.347486290E-1,6.504653192E-1,8.450276774E-1
5.850913375E0,2.910056904E-2,5.878290680E-1,6.422008646E-1,8.710980466E-1
5.860943375E0,3.096714646E-2,6.863824260E-1,6.037372953E-1,9.146466644E-1
5.870973375E0,2.547120228E-2,7.725478730E-1,4.874847078E-1,9.138491881E-1
5.881003375E0,-2.421039641E-2,8.011998144E-1,2.966269112E-1,8.546898913E-1
5.891033375E0,-1.533289048E-1,7.743587556E-1,3.391385078E-2,7.901211203E-1
5.901063375E0,-3.040036123E-1,7.492528582E-1,-1.360623693E-1,8.199457361E-1
5.911093375E0,-3.485384917E-1,7.725461188E-1,-1.014269722E-1,8.535771884E-1
5.921123375E0,-4.072454140E-1,8.066923964E-1,2.000332475E-2,9.038813985E-1
5.931153375E0,-4.346162304E-1,7.401852885E-1,5.994097710E-2,8.604408462E-1
5.941183375E0,-5.337779912E-1,7.180945078E-1,1.652241880E-1,9.098778480E-1
5.951213375E0,-6.480308309E-1,6.410179728E-1,1.598734009E-1,9.254228783E-1
5.961243375E0,-8.059772819E-1,5.722740126E-1,1.708240664E-1,1.003133982E0
5.971273375E0,-9.839631642E-1,5.184115085E-1,2.012500530E-1,1.130236959E0
5.981303375E0,-1.104068336E0,4.307690549E-1,2.087099308E-1,1.203365574E0
5.991332375E0,-1.183177948E0,3.499196041E-1,2.639550090E-1,1.261755139E0
6.001362375E0,-1.302735235E0,2.898371243E-1,4.183542466E-1,1.398622511E0
6.011392375E0,-1.312783529E0,2.926949510E-1,7.559718937E-1,1.542907785E0
6.021422375E0,-1.238643174E0,2.988409594E-1,1.048817995E0,1.650321792E0
6.031452375E0,-1.210073678E0,3.690367833E-1,1.234455398E0,1.767582129E0
6.041482375E0,-8.995613837E-1,6.033955255E-1,1.288060917E0,1.682972896E0
6.051512375E0,-4.418072824E-1,8.246056339E-1,1.357929881E0,1.648982016E0
6.061542375E0,-4.362432182E-2,1.014839533E0,1.419663030E0,1.745636124E0
6.071572375E0,2.153582150E-1,1.103805211E0,1.573910825E0,1.934414741E0
6.081602375E0,2.804861109E-1,1.077096007E0,1.714166232E0,2.043813626E0
6.091632375E0,1.631082268E-1,9.297973359E-1,1.836098805E0,2.064554722E0
6.101662375E0,-3.692779809E-2,7.076882181E-1,1.919435077E0,2.046073628E0
6.111692375E0,-2.934976275E-1,4.546739343E-1,1.975892283E0,2.048662870E0
6.121722375E0,-6.247324540E-1,2.196234664E-1,1.911341946E0,2.022808231E0
6.131751375E0,-8.195890152E-1,2.747021914E-3,1.793891264E0,1.972252409E0
6.141781375E0,-9.128823642E-1,-1.756056270E-1,1.787540018E0,2.014817824E0
6.151811375E0,-9.248261793E-1,-3.646542951E-1,1.801986149E0,2.058016107E0
6.161841375E0,-8.362839854E-1,-5.021106407E-1,1.780088326E0,2.029827690E0
6.171871375E0,-7.966775778E-1,-6.191107947E-1,1.531346603E0,1.833852709E0
6.181901375E0,-8.283896595E-1,-7.389854398E-1,1.041089730E0,1.521905626E0
6.191931375E0,-8.620311762E-1,-8.149875489E-1,4.638993788E-1,1.273775917E0
6.201961375E0,-9.127481706E-1,-8.457020956E-1,-1.046365088E-1,1.248707354E0
6.211991375E0,-9.433669692E-1,-8.951923442E-1,-6.116216809E-1,1.437147053E0
6.222021375E0,-1.010565949E0,-8.973356411E-1,-1.090158395E0,1.736346773E0
6.232051375E0,-1.055222743E0,-8.662033108E-1,-1.442866536E0,1.986370321E0
6.242081375E0,-1.064267508E0,-7.944091505E-1,-1.707565895E0,2.163222715E0
6.252111375E0,-1.064783087E0,-7.148183128E-1,-1.899172136E0,2.291633270E0
6.262141375E0,-1.029811036E0,-6.671424553E-1,-1.884491531E0,2.248754801E0
6.272170375E0,-9.431509146E-1,-6.844095755E-1,-1.708054138E0,2.067703812E0
6.282200375E0,-7.842345567E-1,-7.979432076E-1,-1.429310351E0,1.815121286E0
6.292230625E0,-5.938790359E-1,-9.008156115E-1,-1.019963740E0,1.484751530E0
6.302260625E0,-5.081686485E-1,-9.856721592E-1,-7.096742249E-1,1.316595035E0
6.312290625E0,-4.540626079E-1,-1.106165147E0,-5.447020519E-1,1.313953770E0
6.322320625E0,-3.853104615E-1,-1.220943359E0,-2.611430830E-1,1.306660839E0
6.332350625E0,-2.993954216E-1,-1.271891026E0,1.036062294E-1,1.310754993E0
6.342380625E0,-1.743679176E-1,-1.279131634E0,4.676030052E-1,1.373038411E0
6.352410625E0,-3.403357252E-2,-1.296979967E0,8.649903059E-1,1.559334329E0
6.362440625E0,8.887723938E-2,-1.316074050E0,1.229233834E0,1.803043507E0
6.372470625E0,1.256034547E-1,-1.314199140E0,1.470364822E0,1.976073965E0
6.382500625E0,1.025392587E-1,-1.283740994E0,1.574993729E0,2.034480397E0
6.392530625E0,1.058423509E-1,-1.225724628E0,1.512333797E0,1.949553020E0
6.402560625E0,2.512431622E-2,-1.175471902E0,1.331521516E0,1.776320628E0
6.412589625E0,-1.581978813E-2,-1.104295208E0,1.164353129E0,1.604816619E0
6.422619625E0,-3.156648606E-2,-9.647037515E-1,8.723613060E-1,1.301024219E0
6.432649625E0,-6.448338658E-2,-8.593959823E-1,4.830361462E-1,9.879491283E-1
6.442679625E0,-1.682853515E-1,-7.833696073E-1,1.368687004E-1,8.128474287E-1
6.452709625E0,-2.702191311E-1,-7.366249189E-1,-1.377861285E-1,7.966301947E-1
6.462739625E0,-3.720111157E-1,-7.301479581E-1,-3.425924581E-1,8.881879887E-1
6.472769625E0,-4.829249029E-1,-7.200597569E-1,-4.467570966E-1,9.753432313E-1
6.482799625E0,-4.936362711E-1,-6.529530171E-1,-4.757212794E-1,9.467497802E-1
6.492829625E0,-3.504315278E-1,-5.629409793E-1,-3.174435836E-1,7.351702052E-1
6.502859625E0,-4.261691965E-1,-5.144190297E-1,-2.014681542E-1,6.977367263E-1
6.512889625E0,-5.750167952E-1,-5.233512363E-1,-2.741566461E-1,8.244408396E-1
6.522919625E0,-6.757957497E-1,-5.331514621E-1,-3.729681587E-1,9.381127993E-1
6.532949625E0,-7.157753558E-1,-5.091562432E-1,-4.561576653E-1,9.897748510E-1
6.542978625E0,-7.669102800E-1,-4.569441158E-1,-4.518979686E-1,1.000580370E0
6.553008625E0,-7.653802098E-1,-3.539164683E-1,-3.959249121E-1,9.315687136E-1
6.563038625E0,-5.401643202E-1,-2.411049673E-1,-1.998163158E-1,6.243682071E-1
6.573068625E0,-2.969511393E-1,-1.467291525E-1,7.404621542E-2,3.393998605E-1
6.583098625E0,-1.880955720E-1,-5.248051465E-2,1.171361017E-1,2.277169624E-1
6.593128625E0,-6.563543424E-2,3.244883090E-2,8.116695464E-2,1.093115336E-1
6.603158625E0,3.887652889E-2,1.019558528E-1,1.241188467E-1,1.652630283E-1
6.613188625E0,1.933991428E-1,9.833905756E-2,2.526710522E-1,3.330412276E-1
6.623218625E0,2.024946329E-1,4.941481948E-2,3.569046879E-1,4.133120576E-1
6.633248625E0,1.878023341E-1,2.110084713E-2,3.163752973E-1,3.685217649E-1
6.643278625E0,2.514146318E-1,4.471950531E-3,3.649048483E-1,4.431533185E-1
6.653308625E0,3.571743907E-1,-1.156909624E-1,4.830361462E-1,6.117857980E-1
6.663338625E0,3.214025871E-1,-3.006509650E-1,5.343366927E-1,6.922473019E-1
6.673368625E0,2.149136804E-1,-4.004930493E-1,4.905696988E-1,6.687609453E-1
6.683397625E0,2.109643248E-1,-4.678363091E-1,3.810612899E-1,6.392061210E-1
6.693427625E0,3.256022036E-1,-4.884056443E-1,2.899996769E-1,6.547187801E-1
6.703457625E0,5.032669276E-1,-5.095956615E-1,3.323183155E-1,7.895573452E-1
6.713487625E0,6.247999893E-1,-4.945338187E-1,2.536674178E-1,8.362331513E-1
6.723517625E0,6.983942150E-1,-4.676553378E-1,1.322745430E-1,8.508540117E-1
6.733547625E0,7.411288829E-1,-4.484305698E-1,7.003444076E-2,8.690608839E-1
6.743577625E0,7.666391154E-1,-4.511150265E-1,8.253812671E-2,8.933380338E-1
6.753607625E0,6.996269542E-1,-5.012376514E-1,2.707026958E-2,8.610748270E-1
6.763637625E0,6.337506147E-1,-4.242403463E-1,-1.670420873E-1,7.807193938E-1
6.773667625E0,5.465411474E-1,-1.997958505E-1,-4.423436183E-1,7.309538182E-1
6.783697625E0,5.006795347E-1,3.638751537E-2,-7.295301998E-1,8.855610426E-1
6.793727625E0,5.250653476E-1,2.456801212E-1,-1.012340725E0,1.166570223E0
6.803757625E0,5.339268029E-1,4.176008329E-1,-1.243985190E0,1.416674782E0
6.813787625E0,5.727065603E-1,5.643644840E-1,-1.429710301E0,1.640296198E0
6.823816625E0,5.742692287E-1,7.232447353E-1,-1.521972347E0,1.780243781E0
6.833846625E0,5.623517261E-1,8.331694660E-1,-1.542353987E0,1.840996101E0
6.843876625E0,5.738963225E-1,9.241574040E-1,-1.588593768E0,1.925371148E0
6.853906625E0,5.356105086E-1,9.379650190E-1,-1.622576031E0,1.949207524E0
6.863936625E0,3.671675746E-1,9.409210789E-1,-1.582718486E0,1.877536234E0
6.873966625E0,3.111214279E-1,1.065696568E0,-1.491685524E0,1.859470737E0
6.883996625E0,3.766163827E-1,1.232567624E0,-1.335858981E0,1.856227913E0
6.894026625E0,5.243363459E-1,1.363099697E0,-1.037233492E0,1.791318705E0
6.904056625E0,6.241513869E-1,1.413467613E0,-5.756373310E-1,1.648882647E0
6.914086625E0,6.428430350E-1,1.387287289E0,2.244453728E-2,1.529155632E0
6.924116625E0,5.853342073E-1,1.309961078E0,5.407657063E-1,1.533310702E0
6.934146625E0,4.311422534E-1,1.205656691E0,1.003846475E0,1.627021649E0
6.944175625E0,1.609772091E-1,1.049190755E0,1.399882484E0,1.756811280E0
6.954205625E0,-1.059820993E-1,8.528915396E-1,1.763730741E0,1.961989375E0
6.964235625E0,-2.303629012E-1,7.313542387E-1,2.015130608E0,2.156083824E0
6.974265625E0,-3.232584934E-1,6.422453034E-1,1.914438046E0,2.045005652E0
6.984295625E0,-4.697585812E-1,5.279369152E-1,1.496773771E0,1.655210631E0
6.994325625E0,-5.739324291E-1,4.790729034E-1,9.848079407E-1,1.236428712E0
7.004355625E0,-6.524868478E-1,4.383528936E-1,6.937861705E-1,1.048442462E0
7.014385625E0,-8.164768347E-1,3.340511379E-1,6.737126791E-1,1.110006017E0
7.024415625E0,-9.388919489E-1,1.647529024E-1,7.835660738E-1,1.233951945E0
7.034445625E0,-1.076495937E0,-8.686331213E-2,9.709056008E-1,1.452255633E0
7.044475625E0,-1.250184115E0,-3.724696836E-1,1.133301491E0,1.728023801E0
7.054505625E0,-1.465586038E0,-6.904643673E-1,1.188859395E0,2.009494996E0
7.064535625E0,-1.612337556E0,-1.007020344E0,1.260456796E0,2.280893181E0
7.074564625E0,-1.600696335E0,-1.264816480E0,1.373350743E0,2.459284804E0
7.084594625E0,-1.448856131E0,-1.407149988E0,1.387874642E0,2.450602212E0
7.094624625E0,-1.273517430E0,-1.512984299E0,1.321394139E0,2.378455508E0
7.104654625E0,-1.128083143E0,-1.636565202E0,1.033809947E0,2.240464292E0
7.114684625E0,-1.019602748E0,-1.687125491E0,5.386677253E-1,2.043561867E0
7.124714625E0,-9.451392603E-1,-1.638855557E0,-3.358114421E-2,1.892158410E0
7.134744625E0,-8.414138208E-1,-1.499757313E0,-5.459825921E-1,1.804257799E0
7.144774625E0,-6.315644869E-1,-1.375840780E0,-8.136804038E-1,1.718687683E0
7.154804625E0,-4.414635392E-1,-1.306469121E0,-8.849831057E-1,1.638580702E0
7.164834625E0,-3.952782100E-1,-1.280513038E0,-8.200486064E-1,1.571126418E0
7.174864625E0,-3.752420678E-1,-1.300925083E0,-5.016226906E-1,1.443896813E0
7.184894625E0,-3.585880282E-1,-1.377408126E0,-3.775956452E-2,1.423820320E0
7.194924625E0,-4.895426354E-1,-1.482827869E0,2.993183845E-1,1.589975464E0
7.204953625E0,-6.557316139E-1,-1.602361914E0,3.718753141E-1,1.770830004E0
7.214983625E0,-8.084904883E-1,-1.655319562E0,3.637131858E-1,1.877771819E0
7.225013625E0,-9.213173383E-1,-1.595354611E0,1.042558551E-1,1.845223904E0
7.235043625E0,-1.030002313E0,-1.473926068E0,-5.025886506E-1,1.867072085E0
7.245073625E0,-1.153872141E0,-1.312436497E0,-1.139970240E0,2.086490504E0
7.255103625E0,-1.202865377E0,-1.120677352E0,-1.555721891E0,2.263420739E0
7.265133625E0,-1.201839629E0,-9.232712585E-1,-1.769252851E0,2.329614552E0
7.275163625E0,-1.248043450E0,-7.592439955E-1,-2.070341772E0,2.533846671E0
7.285193625E0,-1.202448105E0,-5.253743729E-1,-2.013719675E0,2.403532110E0
7.295224042E0,-1.050895438E0,-4.172830367E-1,-1.532349401E0,1.904363684E0
7.305254042E0,-7.640892177E-1,-4.119237712E-1,-7.201313853E-1,1.127875320E0
7.315284042E0,-5.842373427E-1,-4.109449473E-1,1.962156004E-1,7.407493396E-1
7.325313042E0,-5.138084342E-1,-4.172675416E-1,1.108625656E0,1.291186335E0
7.335343042E0,-5.068834305E-1,-5.523528412E-1,2.089519470E0,2.219936055E0
7.345373042E0,-4.835461695E-1,-8.045075843E-1,3.027808133E0,3.169963949E0
7.355403042E0,-3.719093741E-1,-9.560986966E-1,3.751726175E0,3.889458907E0
7.365433042E0,-2.149806310E-1,-1.005916097E0,3.920023075E0,4.052735468E0
7.375463042E0,-1.155972607E-1,-9.717303506E-1,3.434986011E0,3.571659488E0
7.385493042E0,-1.566499771E-1,-8.511227569E-1,2.314051382E0,2.470583526E0
7.395523042E0,-2.646273657E-1,-7.070842007E-1,1.070201263E0,1.309704720E0
7.405553042E0,-3.314223028E-1,-5.915592992E-1,1.418669003E-1,6.927549095E-1
7.415583042E0,-3.979367197E-1,-5.076859608E-1,-6.770853531E-1,9.351701680E-1
7.425613042E0,-5.126074892E-1,-4.332319021E-1,-1.431487269E0,1.581016167E0
7.435643042E0,-6.678706529E-1,-2.788791499E-1,-2.044159695E0,2.168504934E0
7.445672042E0,-7.920764038E-1,-1.757860136E-1,-2.368680748E0,2.503783984E0
7.455702042E0,-8.802362629E-1,-8.123975247E-2,-2.374215723E0,2.533439574E0
7.465732042E0,-8.459248745E-1,1.397396833E-2,-2.132606433E0,2.294296050E0
7.475762042E0,-7.703466155E-1,4.318461120E-2,-1.690417766E0,1.858174115E0
7.485792042E0,-7.282521446E-1,1.661574036E-2,-1.213434657E0,1.415291820E0
7.495822042E0,-6.530401406E-1,5.276176572E-2,-7.973234028E-1,1.031973758E0
7.505852042E0,-5.906532001E-1,9.537042618E-2,-5.178639168E-1,7.912962512E-1
7.515882042E0,-5.398952021E-1,1.389573258E-1,-2.841746807E-1,6.257405347E-1
7.525912042E0,-4.688500701E-1,2.091540268E-1,1.003499150E-2,5.134846601E-1
7.535942042E0,-4.185678162E-1,2.814291206E-1,3.905267626E-1,6.378969501E-1
7.545972042E0,-2.810706132E-1,2.883194795E-1,8.180196226E-1,9.117482738E-1
7.556002042E0,-2.043913235E-1,2.878432238E-1,1.258374018E0,1.306956275E0
7.566031042E0,-1.908726340E-1,2.777763650E-1,1.489955918E0,1.527599656E0
7.576061042E0,-2.199298605E-1,2.242538765E-1,1.436950323E0,1.470879049E0
7.586091042E0,-2.386638279E-1,1.847468716E-1,1.275413974E0,1.310638255E0
7.596121042E0,-2.178449627E-1,1.926479217E-1,1.068272851E0,1.107147928E0
7.606151042E0,-2.003204919E-1,2.229201266E-1,6.386299700E-1,7.054572424E-1
7.616181042E0,-2.435743196E-1,2.588840112E-1,1.553722143E-1,3.879302842E-1
7.626211042E0,-3.393050804E-1,2.603864533E-1,-1.799650186E-1,4.640220367E-1
7.636241042E0,-4.299482520E-1,2.720513561E-1,-4.855703294E-1,7.033107312E-1
7.646271042E0,-4.420958425E-1,3.436873493E-1,-8.204468018E-1,9.933290908E-1
7.656301042E0,-5.507762857E-1,3.690780061E-1,-1.079378468E0,1.266740292E0
7.666331042E0,-7.279850730E-1,4.175154635E-1,-1.272423708E0,1.524251791E0
7.676361042E0,-8.537815589E-1,5.024977264E-1,-1.347076864E0,1.672143234E0
7.686390042E0,-9.421145687E-1,5.420272431E-1,-1.245837003E0,1.653324902E0
7.696420042E0,-9.810076891E-1,5.217435443E-1,-9.590544641E-1,1.467779914E0
7.706450042E0,-9.561830427E-1,5.386227018E-1,-6.577310693E-1,1.279457145E0
7.716480042E0,-8.555379163E-1,5.969068703E-1,-2.793536514E-1,1.079945092E0
7.726510042E0,-6.552667603E-1,6.216022933E-1,1.910536784E-1,9.231822389E-1
7.736540042E0,-5.075286707E-1,6.254915687E-1,6.273115146E-1,1.020952884E0
7.746570042E0,-4.009561488E-1,6.175566047E-1,1.048835537E0,1.281482726E0
7.756600042E0,-2.930891995E-1,5.950930640E-1,1.484264238E0,1.625754398E0
7.766630042E0,-1.915052296E-1,5.943823349E-1,1.839856811E0,1.942945624E0
7.776660042E0,-1.223781306E-1,5.496525970E-1,2.080590772E0,2.155447133E0
7.786690042E0,-6.722412273E-2,5.453589866E-1,2.170742558E0,2.239209405E0
7.796720042E0,-4.615996689E-2,5.022150135E-1,2.038972630E0,2.100419017E0
7.806749042E0,-1.141392575E-1,4.603088960E-1,1.689795038E0,1.755083849E0
7.816779042E0,-2.581500395E-1,4.337879723E-1,1.261286516E0,1.358549640E0
7.826809042E0,-3.511276388E-1,4.090846556E-1,8.355460668E-1,9.943732216E-1
7.836839042E0,-4.451355176E-1,3.623139471E-1,4.888213813E-1,7.538987784E-1
7.846869042E0,-5.145776354E-1,3.287079522E-1,2.418104339E-1,6.567429837E-1
7.856899042E0,-5.687588127E-1,2.974458137E-1,-1.313576996E-2,6.419759712E-1
7.866929042E0,-6.119426930E-1,3.003980729E-1,-2.439984620E-1,7.240497988E-1
7.876959042E0,-6.286530121E-1,3.403617454E-1,-5.041896182E-1,8.747902025E-1
7.886989042E0,-6.544421567E-1,3.779613885E-1,-7.912575012E-1,1.094183614E0
7.897019042E0,-6.677531970E-1,4.576525059E-1,-1.040588039E0,1.318394332E0
7.907049042E0,-6.480140202E-1,6.119342145E-1,-1.228870137E0,1.518060430E0
7.917078042E0,-5.835173312E-1,7.430460387E-1,-1.362253897E0,1.657813491E0
7.927108042E0,-4.932914315E-1,8.602651709E-1,-1.401841886E0,1.717135194E0
7.937138042E0,-3.731643328E-1,9.974762258E-1,-1.312225120E0,1.690013375E0
7.947168042E0,-1.886747387E-1,1.102269732E0,-1.030850086E0,1.520936757E0
7.957198042E0,-6.600117758E-2,1.134382933E0,-5.935496914E-1,1.281983631E0
7.967228042E0,2.162227258E-2,1.172456493E0,-2.203575844E-1,1.193180295E0
7.977258042E0,6.525755793E-2,1.142481327E0,6.663486958E-2,1.146281962E0
7.987288042E0,2.955592096E-2,9.155710602E-1,5.991706198E-1,1.094600087E0
7.997318042E0,-2.389543614E-1,6.327456245E-1,9.685895187E-1,1.181368642E0
8.007348042E0,-6.178641683E-1,4.024156138E-1,1.301124766E0,1.495533387E0
8.017378042E0,-9.552162056E-1,2.246712215E-1,1.877004172E0,2.118032062E0
8.027407042E0,-1.030842923E0,7.479787499E-2,2.539267418E0,2.741552639E0
8.037437042E0,-9.430018106E-1,-3.861954376E-2,3.034819529E0,3.178187134E0
8.047467042E0,-6.203887036E-1,-2.414211555E-1,3.427505084E0,3.491555157E0
8.057497042E0,-4.240932888E-1,-4.110965364E-1,3.565857807E0,3.614442887E0
8.067527042E0,-6.513172585E-1,-1.858728991E-1,3.193794213E0,3.264825322E0
8.077557042E0,-6.540451308E-1,-1.107968429E-1,3.026969057E0,3.098805035E0
8.087587042E0,-4.501758175E-1,-1.415527587E-1,2.559174263E0,2.602319804E0
8.097617042E0,-3.230713825E-1,-1.391191475E-1,1.271287009E0,1.319052658E0
8.107647042E0,-2.008594590E-1,-1.550876011E-1,1.173964198E0,1.201078109E0
8.117677042E0,-1.310998374E-1,-3.088448144E-1,1.903231857E0,1.932579569E0
8.127707042E0,-7.563490391E-2,-5.808318512E-1,1.879323762E0,1.968487765E0
8.137736042E0,-2.575906071E-1,-7.662530529E-1,1.339642130E0,1.564652580E0
8.147766042E0,-5.353804207E-1,-8.387351382E-1,7.768569785E-1,1.262384883E0
8.157796042E0,-6.510459477E-1,-8.752600631E-1,1.457956445E-1,1.100544126E0
8.167826042E0,-6.294624129E-1,-9.627028343E-1,-4.813965869E-1,1.246901099E0
8.177856042E0,-6.045860186E-1,-9.812779766E-1,-9.493574417E-1,1.493221442E0
8.187886042E0,-6.308987814E-1,-1.041821802E0,-1.223192491E0,1.726159265E0
8.197916042E0,-7.294267040E-1,-1.140320781E0,-1.261051458E0,1.850039345E0
8.207946042E0,-9.060284042E-1,-1.299901236E0,-1.201984055E0,1.988817830E0
8.217976042E0,-1.029666317E0,-1.486789358E0,-1.151993285E0,2.144258345E0
8.228006042E0,-1.116327608E0,-1.639508691E0,-1.217697278E0,2.327436945E0
8.238036042E0,-1.191160859E0,-1.732652497E0,-1.401540170E0,2.526907935E0
8.248066042E0,-1.244823973E0,-1.712648295E0,-1.580183133E0,2.641917796E0
8.258095042E0,-1.182457278E0,-1.625903389E0,-1.745200914E0,2.662234640E0
8.268125042E0,-1.090933443E0,-1.583903131E0,-1.814531935E0,2.644127654E0
8.278155042E0,-1.072663233E0,-1.541382179E0,-1.779224693E0,2.586910501E0
8.288185042E0,-1.072517637E0,-1.488776827E0,-1.638389241E0,2.459892239E0
8.298214625E0,-9.625011054E-1,-1.427635416E0,-1.244699720E0,2.124577288E0
8.308244625E0,-8.882087222E-1,-1.417329991E0,-6.481170774E-1,1.793821280E0
8.318274625E0,-8.885385051E-1,-1.460512848E0,-1.640822268E-1,1.717417081E0
8.328304625E0,-8.382273075E-1,-1.478707044E0,2.711646259E-1,1.721258201E0
8.338334625E0,-8.661609185E-1,-1.557650595E0,8.486028993E-1,1.973990120E0
8.348364625E0,-1.005054802E0,-1.655619231E0,1.515961994E0,2.459542836E0
8.358393625E0,-1.089185710E0,-1.686145790E0,1.973695484E0,2.815117582E0
8.368423625E0,-1.128302414E0,-1.630050234E0,2.130623057E0,2.910272275E0
8.378453625E0,-1.179143954E0,-1.596335774E0,1.992279105E0,2.812088974E0
8.388483625E0,-1.206115113E0,-1.503415331E0,1.367476045E0,2.363252432E0
8.398513625E0,-1.259292031E0,-1.339809360E0,4.765135771E-1,1.899465906E0
8.408543625E0,-1.264568266E0,-1.140330428E0,-6.979412019E-2,1.704217593E0
8.418573625E0,-1.192242886E0,-1.030466801E0,-3.363628346E-1,1.611348778E0
8.428603625E0,-1.182378049E0,-9.418826535E-1,-6.177688587E-1,1.633033725E0
8.438633625E0,-1.220179713E0,-8.570038864E-1,-8.090564257E-1,1.696427568E0
8.448663625E0,-1.264970554E0,-7.807597026E-1,-8.907531381E-1,1.732967792E0
8.458693625E0,-1.283493364E0,-7.443178082E-1,-8.585905284E-1,1.714217580E0
8.468723625E0,-1.156936229E0,-6.412325656E-1,-6.372389174E-1,1.468248643E0
8.478752625E0,-9.895123181E-1,-4.926662180E-1,-4.845418042E-1,1.206911509E0
8.488782625E0,-7.558917868E-1,-3.055690581E-1,-5.142854208E-1,9.639680164E-1
8.498812625E0,-5.490801546E-1,-1.422095472E-1,-4.735221416E-1,7.388746782E-1
8.508842625E0,-3.283199894E-1,7.068231225E-2,-3.160338199E-1,4.611587363E-1
8.518872625E0,-3.606036365E-2,2.181993771E-1,9.246436000E-2,2.397101914E-1
8.528902625E0,1.315456876E-1,2.547076374E-1,6.257590789E-1,6.882983897E-1
8.538932625E0,1.927908862E-1,2.945248371E-1,9.155704755E-1,9.809090177E-1
8.548962625E0,1.172866675E-1,2.897558481E-1,9.793419635E-1,1.028020085E0
8.558992625E0,-4.704084992E-4,3.342818105E-1,9.273473525E-1,9.857574054E-1
8.569022625E0,-4.384008408E-2,4.194216558E-1,9.808505452E-1,1.067662995E0
8.579051625E0,-1.237361464E-1,3.679135332E-1,1.088987197E0,1.156098663E0
8.589081625E0,-1.280382353E-1,2.534867388E-1,1.205041564E0,1.238052700E0
8.599111625E0,-1.022856358E-1,1.182014644E-1,1.188244268E0,1.198481697E0
8.609141625E0,-6.501080543E-2,1.065479636E-2,9.720662731E-1,9.742960376E-1
8.619171625E0,-5.191421181E-2,-5.514684498E-2,6.516938192E-1,6.560800971E-1
8.629201625E0,-6.733712018E-2,-1.104837245E-1,3.327761525E-1,3.570446874E-1
8.639231625E0,-8.811753988E-2,-1.491206637E-1,8.227207839E-2,1.917560118E-1
8.649261625E0,-3.371943086E-2,-1.000862056E-1,-2.935214549E-1,3.119440544E-1
8.659291625E0,-2.475681871E-2,-3.599253595E-2,-6.002886075E-1,6.018760462E-1
8.669321625E0,-3.137235850E-2,-7.325976491E-3,-8.165946561E-1,8.172299109E-1
8.679350625E0,-6.116041392E-2,-3.442928284E-2,-7.714342707E-1,7.746204269E-1
8.689380625E0,-7.089164257E-2,-3.128289610E-2,-8.170665264E-1,8.207325710E-1
8.699410625E0,-8.397215635E-2,-6.475528210E-2,-8.104743755E-1,8.173819688E-1
8.709440625E0,-8.279423475E-2,-9.915766776E-2,-7.840958315E-1,7.946655909E-1
8.719470625E0,-9.495585859E-2,-1.632145000E-1,-8.429527348E-1,8.638430999E-1
8.729500625E0,-1.384033021E-1,-2.268482861E-1,-7.635264963E-1,8.084480994E-1
8.739530625E0,-1.641854301E-1,-2.250262937E-1,-5.688972455E-1,6.334333148E-1
8.749560625E0,-3.420328796E-2,-1.827067780E-1,-3.286410016E-1,3.775666028E-1
8.759590625E0,1.916340145E-1,-1.485958761E-1,-1.840329266E-1,3.044214972E-1
8.769620625E0,4.639496648E-1,-9.362064689E-2,-5.609175503E-2,4.766134723E-1
8.779650625E0,6.993921885E-1,6.531281412E-2,1.574538231E-1,7.198658927E-1
8.789679625E0,8.317313433E-1,2.196521178E-1,3.292988133E-1,9.211198558E-1
8.799709625E0,8.863273805E-1,3.473591083E-1,3.288696277E-1,1.007169205E0
8.809739625E0,7.906827199E-1,4.422515246E-1,1.411547095E-1,9.168916112E-1
8.819769625E0,6.285388452E-1,5.225978225E-1,-4.188419044E-2,8.184887595E-1
8.829799625E0,4.895049208E-1,5.651895261E-1,-1.342935866E-1,7.596637647E-1
8.839829625E0,3.551730350E-1,6.063960242E-1,-1.472387373E-2,7.029088244E-1
8.849859625E0,2.925152953E-1,6.070865804E-1,1.999964100E-1,7.029351877E-1
8.859889625E0,2.551305373E-1,6.272068495E-1,4.204136360E-1,7.970116990E-1
8.869919625E0,1.372936468E-1,6.482457161E-1,5.352330709E-1,8.517901702E-1
8.879949625E0,1.348767002E-1,6.616419795E-1,6.489023584E-1,9.365020577E-1
8.889978625E0,2.331394516E-1,7.441894618E-1,7.814803720E-1,1.104030584E0
8.900008625E0,3.841293240E-1,9.642514694E-1,7.142081559E-1,1.259932349E0
8.910038625E0,6.265863137E-1,1.195083463E0,4.710762513E-1,1.429247259E0
8.920068625E0,8.531539334E-1,1.340149960E0,1.962857670E-1,1.600750340E0
8.930098625E0,1.060057221E0,1.479025133E0,8.405021667E-2,1.821620458E0
8.940128625E0,1.139601281E0,1.638984195E0,1.015585345E-1,1.998818253E0
8.950158625E0,1.098583355E0,1.834872059E0,-1.386667192E-2,2.138652180E0
8.960188625E0,1.193447851E0,1.867990981E0,-1.384930569E-1,2.221010672E0
8.970218625E0,1.448424607E0,1.797358370E0,-1.141043204E-1,2.311157880E0
8.980248625E0,1.520531301E0,1.754096283E0,1.571146846E-3,2.321394339E0
8.990278625E0,1.421041219E0,1.650681843E0,2.298786056E-1,2.190194709E0
9.000307625E0,1.170440227E0,1.388297396E0,9.065371120E-1,2.029558947E0
9.010337625E0,9.427034564E-1,1.054442724E0,1.804998050E0,2.293154427E0
9.020367625E0,7.826294960E-1,5.633426830E-1,2.432987841E0,2.617115539E0
9.030397625E0,6.364106593E-1,3.836913675E-2,2.609598312E0,2.686353303E0
9.040427625E0,3.911475907E-1,-4.342431781E-1,2.405384890E0,2.475366649E0
9.050457625E0,-8.219840348E-2,-7.934320807E-1,1.961176595E0,2.117192642E0
9.060487625E0,-5.154012157E-1,-9.750729114E-1,1.275295860E0,1.686056086E0
9.070517625E0,-7.972639073E-1,-1.076985202E0,2.112832904E-1,1.356527734E0
9.080547625E0,-9.405553356E-1,-1.132437564E0,-7.169306195E-1,1.637390818E0
9.090577625E0,-1.025608496E0,-1.133985907E0,-1.224368366E0,1.958794201E0
9.100606625E0,-1.196497028E0,-1.115572733E0,-1.508304480E0,2.225104507E0
9.110636625E0,-1.488625384E0,-1.134127702E0,-1.719252141E0,2.541275093E0
9.120666625E0,-1.793922546E0,-1.189280102E0,-1.755364544E0,2.777381851E0
9.130696625E0,-2.101729334E0,-1.278505104E0,-1.653817120E0,2.964279433E0
9.140726625E0,-2.227320655E0,-1.309148900E0,-1.501814071E0,2.988356346E0
9.150756625E0,-2.248757717E0,-1.268664533E0,-1.226492075E0,2.858444293E0
9.160786625E0,-2.283192263E0,-1.259319513E0,-8.096230209E-1,2.730264086E0
9.170816625E0,-2.253860729E0,-1.242038944E0,-3.032588232E-1,2.591238090E0
9.180846625E0,-2.130351747E0,-1.262833397E0,3.086406004E-1,2.495677418E0
9.190876625E0,-2.020306856E0,-1.373303673E0,7.989296329E-1,2.570192858E0
9.200905625E0,-1.983740416E0,-1.552266186E0,1.117505822E0,2.755644319E0
9.210935625E0,-1.988456487E0,-1.666724263E0,1.189074572E0,2.854089577E0
9.220965625E0,-2.108248687E0,-1.518204401E0,1.061815186E0,2.806618716E0
9.230995625E0,-2.248040703E0,-1.316247712E0,8.434257746E-1,2.738167650E0
9.241025625E0,-2.362387682E0,-1.239898278E0,7.221451664E-1,2.764003789E0
9.251055625E0,-2.362421743E0,-1.207644452E0,7.213762575E-1,2.749513651E0
9.261085625E0,-2.360890649E0,-1.153868487E0,8.612013102E-1,2.765300135E0
9.271115625E0,-2.315139256E0,-1.071282121E0,1.097331174E0,2.776985932E0
9.281145625E0,-2.170878214E0,-1.022348527E0,1.355531938E0,2.755970893E0
9.291174625E0,-1.864149653E0,-1.023823487E0,1.495281562E0,2.599833727E0
9.301207750E0,-1.512097861E0,-9.980656251E-1,1.510924033E0,2.359124068E0
9.311237750E0,-1.245763620E0,-9.412859452E-1,1.455684217E0,2.134704375E0
9.321267750E0,-9.374957800E-1,-8.801030195E-1,1.299398668E0,1.828090961E0
9.331297750E0,-6.277570724E-1,-8.624654782E-1,1.136758364E0,1.558892306E0
9.341327750E0,-8.729860809E-1,-6.661908209E-1,9.816603845E-1,1.472946713E0
9.351357750E0,-1.070417610E0,-5.966709352E-1,4.766094714E-1,1.314901765E0
9.361387750E0,-1.281297735E0,-6.753598398E-1,-9.977864206E-2,1.451823190E0
9.371417750E0,-1.546275422E0,-6.762790221E-1,-4.332687396E-1,1.742424402E0
9.381447750E0,-1.751291666E0,-6.436354789E-1,-4.192699206E-1,1.912348398E0
9.391477750E0,-1.805921033E0,-6.968743774E-1,-2.841162086E-1,1.956452579E0
9.401506750E0,-1.785714517E0,-7.624655190E-1,-6.022281289E-2,1.942615966E0
9.411536750E0,-1.752997299E0,-8.283224165E-1,1.683337373E-1,1.946138177E0
9.421566750E0,-1.701331009E0,-8.814411548E-1,3.078863096E-1,1.940685367E0
9.431596750E0,-1.558197894E0,-9.051887441E-1,3.980948138E-1,1.845488234E0
9.441626750E0,-1.349503459E0,-8.991254738E-1,4.294838369E-1,1.677510825E0
9.451656750E0,-1.152304357E0,-8.781111655E-1,4.438586318E-1,1.515221117E0
9.461686750E0,-9.060535473E-1,-8.594895378E-1,5.113717532E-1,1.349502266E0
9.471716750E0,-6.138529783E-1,-8.029282513E-1,6.019538945E-1,1.176374833E0
9.481746750E0,-3.389359018E-1,-7.057814410E-1,6.819747949E-1,1.038313348E0
9.491775750E0,-1.078457531E-1,-6.180667743E-1,7.064529938E-1,9.448349466E-1
9.501805750E0,1.918968469E-2,-5.860699332E-1,6.249509937E-1,8.569772197E-1
9.511835750E0,9.369432181E-2,-5.060931793E-1,4.505297202E-1,6.840219008E-1
9.521865750E0,2.444171226E-1,-4.370153430E-1,4.253083402E-1,6.569698045E-1
9.531895750E0,3.858609769E-1,-3.866471350E-1,3.481572533E-1,6.477639798E-1
9.541925750E0,5.262470698E-1,-3.186223823E-1,3.349589181E-1,7.004667571E-1
9.551955750E0,6.200171131E-1,-2.293321833E-1,3.812530786E-1,7.631306446E-1
9.561985750E0,5.853989652E-1,-1.563744271E-1,4.162375546E-1,7.351180937E-1
9.572015750E0,5.364302883E-1,-6.153755933E-2,3.677349007E-1,6.532788704E-1
9.582045750E0,5.363174370E-1,4.000986546E-2,3.173529518E-1,6.244598294E-1
9.592074750E0,4.887614474E-1,1.452980465E-1,2.950996184E-1,5.891375557E-1
9.602104750E0,4.422857308E-1,2.305636069E-1,2.719633555E-1,5.681023775E-1
9.612134750E0,4.605053625E-1,3.183215430E-1,3.849046648E-1,6.793713230E-1
9.622164750E0,4.335850739E-1,3.772763872E-1,4.030783957E-1,7.020011979E-1
9.632194750E0,3.600294399E-1,4.872280151E-1,1.876435822E-1,6.342100994E-1
9.642224750E0,4.508942941E-1,6.860321778E-1,3.043007970E-2,8.215058144E-1
9.652254750E0,5.064799726E-1,8.441116530E-1,-7.601731181E-2,9.873323032E-1
9.662284750E0,5.736334902E-1,9.707372010E-1,-1.727723587E-1,1.140717486E0
9.672314750E0,5.796973452E-1,1.059669843E0,-3.546915168E-1,1.258870629E0
9.682343750E0,4.195554109E-1,1.064680029E0,-6.493069857E-1,1.315739286E0
9.692373750E0,-6.512321815E-2,8.707527369E-1,-8.222933525E-1,1.199423912E0
9.702403750E0,1.582111837E-1,1.147138634E0,-7.579324651E-1,1.383986794E0
9.712433750E0,2.585371251E-1,1.359414782E0,-7.161336440E-1,1.558106989E0
9.722463750E0,7.829597175E-2,1.331963566E0,-7.462538213E-1,1.528774662E0
9.732493750E0,4.612722248E-3,1.090968234E0,-8.501126504E-1,1.383085132E0
9.742523750E0,-2.185370538E-1,9.060155404E-1,-9.381085682E-1,1.322372976E0
9.752553750E0,-6.088090239E-1,8.795153743E-1,-9.203722090E-1,1.411127466E0
9.762583750E0,-8.045410596E-1,8.255294940E-1,-9.210294360E-1,1.475493302E0
9.772612750E0,-8.468383558E-1,7.328163350E-1,-8.941702509E-1,1.433072022E0
9.782642750E0,-9.262594780E-1,7.428434327E-1,-6.758434045E-1,1.366212756E0
9.792672750E0,-9.131530903E-1,7.559268701E-1,-2.802067602E-1,1.218109120E0
9.802702750E0,-8.809859490E-1,6.658730248E-1,1.146141976E-1,1.110252017E0
9.812732750E0,-8.810898833E-1,5.481475237E-1,4.241061527E-1,1.121004513E0
9.822762750E0,-8.533160475E-1,4.397737670E-1,4.726012051E-1,1.070000534E0
9.832792750E0,-8.930445157E-1,4.679778117E-1,4.090945959E-1,1.088067152E0
9.842822750E0,-9.579662973E-1,5.426271674E-1,5.121026552E-1,1.214245774E0
9.852852750E0,-1.019077156E0,5.193827310E-1,8.813408750E-1,1.443966208E0
9.862882750E0,-9.945429701E-1,4.069431129E-1,1.296009037E0,1.683555119E0
9.872911750E0,-8.330384152E-1,3.066034305E-1,1.625604304E0,1.852173863E0
9.882941750E0,-6.034328015E-1,3.356380722E-1,1.962960581E0,2.080864797E0
9.892971750E0,-4.745649194E-1,3.383535191E-1,2.203375869E0,2.279157780E0
9.903001750E0,-4.169635595E-1,2.803792530E-1,2.062890666E0,2.123202542E0
9.913031750E0,-4.653122853E-1,1.418253851E-1,1.676794923E0,1.745929889E0
9.923061750E0,-5.347818851E-1,1.176956803E-2,1.313915550E0,1.418627597E0
9.933091750E0,-5.968859665E-1,-5.309827298E-2,9.049700582E-1,1.085386148E0
9.943121750E0,-6.684634875E-1,-9.650127769E-2,4.274916905E-1,7.993153796E-1
9.953151750E0,-5.997665973E-1,-1.023215961E-1,6.302889168E-2,6.116880916E-1
9.963180750E0,-5.256596439E-1,-1.632130381E-1,-5.421596825E-2,5.530785914E-1
9.973210750E0,-5.404810200E-1,-2.602215618E-1,-1.216559994E-1,6.120744860E-1
9.983240750E0,-6.242364639E-1,-3.301057291E-1,-1.621824664E-1,7.245302669E-1
9.993270750E0,-6.989814947E-1,-4.071501043E-1,-1.424206316E-2,8.090421335E-1
1.000330075E1,-6.208144540E-1,-4.982994255E-1,1.410196388E-1,8.084549724E-1
1.001333075E1,-5.296443021E-1,-6.196440607E-1,1.407331252E-1,8.272168164E-1
1.002336075E1,-3.727684763E-1,-7.243945903E-1,-6.129051447E-3,8.147032740E-1
1.003339075E1,-2.673306066E-1,-7.858646142E-1,-1.375422996E-1,8.414075881E-1
1.004342075E1,-2.973139590E-1,-8.396528587E-1,-2.055196899E-1,9.141394074E-1
1.005345075E1,-2.947928589E-1,-9.057012525E-1,-8.314565241E-2,9.560914119E-1
1.006347975E1,-1.808594234E-1,-1.000219155E0,1.162087333E-1,1.023060584E0
1.007350975E1,-2.824278250E-3,-1.028135809E0,2.728310823E-1,1.063723656E0
1.008353975E1,7.290264621E-2,-9.938506597E-1,2.166831940E-1,1.019806617E0
1.009356975E1,1.051798613E-1,-1.000315049E0,8.247497678E-2,1.009205193E0
1.010359975E1,1.439648082E-1,-1.010374306E0,-3.384602308E-2,1.021140372E0
1.011362975E1,2.946673630E-1,-9.757924113E-1,-5.801431954E-2,1.020962950E0
1.012365975E1,3.561353405E-1,-9.143793976E-1,-6.476025224E-2,9.834205376E-1
1.013368975E1,2.864314136E-1,-9.106687546E-1,-1.947380090E-1,9.743117711E-1
1.014371975E1,2.022043917E-1,-9.193667802E-1,-3.713309383E-1,1.011933080E0
1.015374875E1,2.020468093E-1,-9.204075846E-1,-3.406377339E-1,1.002001547E0
1.016377875E1,2.542066772E-1,-9.188247433E-1,-5.039715171E-2,9.546726227E-1
1.017380875E1,2.906447710E-1,-9.196904236E-1,2.160207045E-1,9.884178281E-1
1.018383875E1,3.129084101E-1,-8.821021825E-1,3.376001054E-1,9.949822936E-1
1.019386875E1,3.485578606E-1,-8.528739980E-1,3.421515781E-1,9.828297620E-1
1.020389875E1,3.697679776E-1,-7.916097960E-1,3.122810769E-1,9.278436815E-1
1.021392875E1,3.521142834E-1,-7.107697007E-1,2.341634452E-1,8.270493063E-1
1.022395875E1,3.367848574E-1,-6.100154507E-1,1.235814875E-1,7.076830324E-1
1.023398875E1,3.188793674E-1,-4.928182456E-1,-4.536737680E-2,5.887376946E-1
1.024401775E1,1.507855122E-1,-4.483016387E-1,-2.995587051E-1,5.598625257E-1
1.025404775E1,-6.737914704E-2,-4.479858890E-1,-4.817082435E-1,6.612670701E-1
1.026407775E1,-2.397546990E-1,-4.573923048E-1,-5.924328732E-1,7.859177728E-1
1.027410775E1,-3.557222347E-1,-4.545093352E-1,-6.464266473E-1,8.665935924E-1
1.028413775E1,-3.830908585E-1,-4.504121912E-1,-5.462702751E-1,8.050099138E-1
1.029416450E1,-3.579251001E-1,-5.314367661E-1,-3.169670355E-1,7.148450988E-1
1.030419450E1,-3.133548450E-1,-5.559947795E-1,-6.424394310E-2,6.414427004E-1
1.031422450E1,-2.810126527E-1,-5.189228475E-1,-1.828821945E-1,6.178146402E-1
1.032425450E1,-2.948088656E-1,-4.631918657E-1,-6.272086036E-1,8.335763937E-1
1.033428350E1,-2.884123772E-1,-2.986365992E-1,-1.107580174E0,1.182835305E0
1.034431350E1,-2.592674424E-1,-1.380548081E-1,-1.422981910E0,1.452981848E0
1.035434350E1,-1.578352077E-1,-2.878291905E-3,-1.534672499E0,1.542770209E0
1.036437350E1,2.532940730E-3,1.524339885E-1,-1.469784193E0,1.477669825E0
1.037440350E1,2.039073933E-1,3.026100746E-1,-1.195473180E0,1.249922881E0
1.038443350E1,2.948082809E-1,3.468249652E-1,-9.880747801E-1,1.087883840E0
1.039446350E1,3.766578980E-1,3.606562614E-1,-7.655391079E-1,9.262797832E-1
1.040449350E1,3.441505949E-1,3.647846881E-1,-6.164590824E-1,7.946881784E-1
1.041452350E1,2.341586213E-1,3.242243072E-1,-4.770328099E-1,6.225045887E-1
1.042455250E1,1.321000037E-1,2.872462231E-1,-3.284006810E-1,4.558594202E-1
1.043458250E1,8.373994879E-2,2.401580107E-1,-1.717268765E-1,3.068849446E-1
1.044461250E1,3.750696480E-2,2.651285452E-1,-4.172690034E-2,2.710000961E-1
1.045464250E1,-1.232731931E-2,2.809382468E-1,3.393723965E-2,2.832490028E-1
1.046467250E1,-1.530318663E-2,3.267336398E-1,5.642095327E-2,3.319222543E-1
1.047470250E1,2.004907921E-2,3.986421132E-1,1.604826808E-2,3.994684555E-1
1.048473250E1,1.063839492E-1,4.929305121E-1,6.259561300E-2,5.081498256E-1
1.049476250E1,2.454383388E-1,6.054303566E-1,1.029326302E-1,6.613478821E-1
1.050479150E1,2.647833402E-1,6.586531752E-1,-2.395721197E-2,7.102873858E-1
1.051482150E1,2.338541275E-1,7.084118110E-1,-1.997332853E-1,7.722877910E-1
1.052485150E1,1.714911241E-1,7.296199545E-1,-3.043271095E-1,8.089310683E-1
1.053488150E1,1.197036872E-1,7.238961151E-1,-3.638581967E-1,8.189916639E-1
1.054491150E1,1.207974820E-1,7.022368589E-1,-3.300308847E-1,7.852700316E-1
1.055494150E1,1.474022767E-1,7.115751547E-1,-2.400907677E-1,7.653170641E-1
1.056497150E1,2.124885477E-1,7.728528053E-1,-1.546980304E-1,8.163236626E-1
1.057500150E1,2.079963877E-1,8.652902681E-1,-1.634472191E-1,9.048230428E-1
1.058503150E1,2.321728703E-1,9.314573604E-1,-1.846082926E-1,9.775465603E-1
1.059506050E1,2.582484189E-1,1.030822312E0,-3.183194965E-1,1.109330513E0
1.060509050E1,2.543720438E-1,1.147570159E0,-4.035286313E-1,1.242762150E0
1.061512050E1,2.888185028E-1,1.188356534E0,-2.698758996E-1,1.252373898E0
1.062515050E1,3.285850876E-1,1.149864021E0,-1.271769404E-3,1.195891736E0
1.063518050E1,3.567769628E-1,1.051909710E0,2.615026867E-1,1.141134302E0
1.064521050E1,3.479483615E-1,9.822810665E-1,4.024895811E-1,1.117113252E0
1.065524050E1,3.460653388E-1,8.975671908E-1,5.056034750E-1,1.086748800E0
1.066527050E1,3.446089435E-1,8.042175624E-1,6.123835731E-1,1.067958263E0
1.067530050E1,2.165261780E-1,7.323289695E-1,6.181337249E-1,9.824859324E-1
1.068532950E1,4.870255552E-2,7.561490643E-1,4.324021822E-1,8.724133158E-1
1.069535950E1,2.075699430E-2,7.793291813E-1,3.016590250E-1,8.359324093E-1
1.070538950E1,5.117000744E-2,6.456334725E-1,4.069562691E-1,7.649015332E-1
1.071541950E1,1.782971735E-1,4.690879056E-1,7.827620816E-1,9.298117130E-1
1.072544950E1,2.768763689E-1,2.979194382E-1,1.376021751E0,1.434870160E0
1.073547950E1,3.238555672E-1,1.123168266E-1,1.955502457E0,1.985317949E0
1.074550950E1,2.440208276E-1,-1.477082688E-1,2.292201506E0,2.309881305E0
1.075553950E1,1.072835251E-1,-4.540158302E-1,2.333293399E0,2.379474357E0
1.076556950E1,-1.651425279E-1,-7.352756739E-1,1.905247977E0,2.048870964E0
1.077559850E1,-5.015844278E-1,-8.630814824E-1,1.022613698E0,1.429068004E0
1.078562850E1,-7.018551088E-1,-8.848486197E-1,2.269169909E-1,1.151976126E0
1.079565850E1,-8.181203409E-1,-9.090815279E-1,-1.317015159E-1,1.230079431E0
1.080568850E1,-7.174700251E-1,-9.523480001E-1,-1.214583635E-1,1.198533305E0
1.081571850E1,-5.485644302E-1,-9.387997091E-1,5.590522885E-2,1.088757651E0
1.082574850E1,-3.077254016E-1,-9.619315866E-1,3.561696929E-1,1.070917434E0
1.083577850E1,-1.479647423E-1,-1.021481093E0,6.610715836E-1,1.225696874E0
1.084580850E1,-8.432702752E-2,-1.125007215E0,8.241580296E-1,1.397135906E0
1.085583750E1,-1.018370264E-1,-1.201061949E0,9.001636469E-1,1.504398610E0
1.086586750E1,-1.788642986E-1,-1.273805990E0,8.162771523E-1,1.523444297E0
1.087589750E1,-3.470887477E-1,-1.258322563E0,4.899978411E-1,1.394253978E0
1.088592750E1,-6.015080808E-1,-1.138740571E0,5.798683763E-3,1.287857012E0
1.089595750E1,-8.235812017E-1,-9.921651998E-1,-4.948428440E-1,1.381139826E0
1.090598750E1,-1.046939139E0,-9.855397198E-1,-9.210516554E-1,1.707543924E0
1.091601750E1,-1.293600423E0,-9.400188535E-1,-1.190438143E0,1.993534668E0
1.092604750E1,-1.346481033E0,-8.815189227E-1,-1.152327746E0,1.979380210E0
1.093607750E1,-1.246532675E0,-8.740368256E-1,-9.544790179E-1,1.796890169E0
1.094610650E1,-1.120256937E0,-8.975493568E-1,-6.140862823E-1,1.561304716E0
1.095613650E1,-9.235808685E-1,-8.964454025E-1,-1.553529185E-1,1.296437623E0
1.096616650E1,-7.035639576E-1,-8.530415207E-1,3.104877359E-1,1.148514133E0
1.097619650E1,-5.358474305E-1,-8.221252450E-1,6.131694388E-1,1.157151307E0
1.098622650E1,-4.205523612E-1,-7.990351751E-1,7.818727201E-1,1.194423062E0
1.099625650E1,-2.237201354E-1,-6.806381214E-1,8.263770479E-1,1.093717503E0
1.100628650E1,-9.868300175E-2,-4.829747504E-1,7.908370864E-1,9.318939004E-1
1.101631650E1,-8.764912309E-2,-2.657273000E-1,6.510301602E-1,7.086138838E-1
1.102634550E1,-9.167354235E-2,-9.025879025E-2,4.336072934E-1,4.522896997E-1
1.103637550E1,-2.582938444E-1,-8.273517787E-3,7.000345051E-2,2.677398817E-1
1.104640550E1,-5.127897030E-1,6.481638551E-3,-3.409827197E-1,6.158445472E-1
1.105643550E1,-7.503034566E-1,-1.101615429E-3,-6.002242881E-1,9.608463387E-1
1.106646550E1,-9.573650573E-1,-3.533004642E-2,-6.873735291E-1,1.179100689E0
1.107649550E1,-1.004206810E0,-5.336695254E-2,-5.980409378E-1,1.170013808E0
1.108652550E1,-9.629215202E-1,-5.116489112E-2,-4.363215709E-1,1.058400781E0
1.109655550E1,-9.246002575E-1,-5.661625028E-2,-3.225721765E-1,9.808893133E-1
1.110658550E1,-7.978942372E-1,-7.118254155E-2,-2.285126960E-1,8.330187394E-1
1.111661450E1,-6.251261178E-1,-4.592812479E-2,-1.664971268E-1,6.485471062E-1
1.112664450E1,-4.229568824E-1,-1.622602344E-3,-1.448969275E-1,4.470909044E-1
1.113667450E1,-2.163529360E-1,5.243987650E-2,-1.298707527E-1,2.577303745E-1
1.114670450E1,-1.170857517E-1,9.053302467E-2,-1.218261534E-1,1.916948446E-1
1.115673450E1,-1.263267005E-1,9.483511358E-2,-1.628133810E-1,2.268486964E-1
1.116676450E1,-2.006919729E-1,7.543785274E-2,-1.835464382E-1,2.822364834E-1
1.117679450E1,-2.910860896E-1,3.802648991E-2,-1.935697353E-1,3.516338549E-1
1.118682450E1,-3.523618399E-1,3.235790670E-2,-1.743294722E-1,3.944574314E-1
1.119685350E1,-3.462981310E-1,-4.442129731E-3,-1.711468327E-1,3.863073471E-1
1.120688350E1,-3.581710852E-1,7.799893320E-3,-1.585098302E-1,3.917559583E-1
1.121691350E1,-2.799368381E-1,4.733584195E-2,-1.002709776E-1,3.010973002E-1
1.122694350E1,-1.626080706E-1,5.006766111E-2,-1.688968241E-2,1.709778251E-1
1.123697350E1,-6.343067306E-2,8.801024348E-2,4.087203741E-2,1.159300508E-1
1.124700350E1,5.309866584E-2,1.613065535E-1,-5.449838877E-2,1.783517505E-1
1.125703350E1,1.384493033E-1,2.403521383E-1,-1.940258181E-1,3.385016662E-1
1.126706350E1,1.096449688E-1,2.909030718E-1,-4.049366409E-1,5.105098427E-1
1.127709250E1,2.888791768E-2,3.680708233E-1,-5.835217166E-1,6.905130241E-1
1.128712250E1,-8.643170538E-2,4.394723430E-1,-6.951058871E-1,8.269090483E-1
1.129715250E1,-1.515740458E-1,4.903483817E-1,-7.749636501E-1,9.295078729E-1
1.130718250E1,-1.905687798E-1,5.187430456E-1,-8.359466010E-1,1.002106545E0
1.131721250E1,-2.615677918E-1,5.910561463E-1,-8.693377107E-1,1.083288112E0
1.132724250E1,-3.179036133E-1,6.187684402E-1,-8.225664175E-1,1.077289469E0
1.133727250E1,-3.459710159E-1,6.076061055E-1,-7.164909089E-1,1.001119546E0
1.134730250E1,-3.121387338E-1,6.324184728E-1,-5.398412615E-1,8.881510578E-1
1.135733150E1,-2.818715721E-1,6.383288383E-1,-2.328834897E-1,7.356289886E-1
1.136736150E1,-3.144809456E-1,5.830963317E-1,1.785096467E-2,6.627354329E-1
1.137739150E1,-3.986621399E-1,5.234231570E-1,8.022029042E-2,6.628262202E-1
1.138742150E1,-4.992960469E-1,4.648369798E-1,3.637026608E-2,6.831491466E-1
1.139745150E1,-5.872273164E-1,4.502540240E-1,-5.845578432E-2,7.422814062E-1
1.140748150E1,-6.988746368E-1,4.484144899E-1,-2.233946282E-1,8.598874767E-1
1.141751150E1,-7.259816708E-1,4.730716136E-1,-3.393630409E-1,9.305984158E-1
1.142754150E1,-7.743345628E-1,4.773020741E-1,-3.273066670E-1,9.667165765E-1
1.143757150E1,-7.919112930E-1,4.737545684E-1,-2.173597169E-1,9.480570308E-1
1.144760050E1,-7.577436000E-1,4.217517713E-1,4.482300103E-2,8.683657187E-1
1.145763050E1,-6.537880725E-1,3.774684682E-1,5.026763588E-1,9.069756392E-1
1.146766050E1,-6.313504788E-1,3.673671108E-1,8.643114442E-1,1.131634346E0
1.147769050E1,-6.910582982E-1,3.514071357E-1,9.779158276E-1,1.247945477E0
1.148772050E1,-7.541667851E-1,3.525277546E-1,9.896219534E-1,1.293211107E0
1.149775050E1,-8.085746151E-1,3.874543431E-1,9.118984240E-1,1.278855939E0
1.150778050E1,-8.091427452E-1,4.881065592E-1,8.120157015E-1,1.245925156E0
1.151781050E1,-7.484179489E-1,5.993305412E-1,6.496841311E-1,1.158195145E0
1.152783950E1,-6.484076840E-1,7.232336256E-1,4.989949518E-1,1.092014361E0
1.153786950E1,-5.910967114E-1,8.737938738E-1,2.661254954E-1,1.087995329E0
1.154789950E1,-5.355708937E-1,9.528280565E-1,-3.239766777E-2,1.093511361E0
1.155792950E1,-4.358749898E-1,9.652735627E-1,-1.697844315E-1,1.072644774E0
1.156795950E1,-2.610758035E-1,9.431395125E-1,-1.244462907E-2,9.786866629E-1
1.157798950E1,-1.479712473E-1,8.851938978E-1,1.832178247E-1,9.159871713E-1
1.158801950E1,-8.014453243E-2,7.617042115E-1,4.663224649E-1,8.967012285E-1
1.159804950E1,-6.162380576E-2,5.571358636E-1,8.524614769E-1,1.020239400E0
1.160807850E1,-1.420123133E-1,3.121518534E-1,1.051038768E0,1.105571693E0
1.161810850E1,-3.127073024E-1,4.699582636E-2,1.076929069E0,1.122395066E0
1.162813850E1,-4.959941242E-1,-1.428439701E-1,1.056975446E0,1.176270234E0
1.163816850E1,-5.867339941E-1,-2.755684564E-1,9.835858727E-1,1.177979594E0
1.164819850E1,-6.037961329E-1,-4.107867801E-1,8.441748029E-1,1.116219802E0
1.165822850E1,-5.800012542E-1,-4.771901000E-1,6.437877989E-1,9.892292840E-1
1.166825850E1,-5.084300190E-1,-4.457294485E-1,3.224102086E-1,7.490822172E-1
1.167828850E1,-3.855232271E-1,-3.942809674E-1,7.190613449E-2,5.561080219E-1
1.168831750E1,-2.835370418E-1,-3.671379000E-1,3.126973987E-2,4.649314878E-1
1.169834750E1,-2.807356043E-1,-4.149467817E-1,6.814286649E-2,5.056053415E-1
1.170837750E1,-2.596979619E-1,-5.019568589E-1,6.538239598E-2,5.689275678E-1
1.171840750E1,-1.838521014E-1,-5.102157587E-1,9.013892233E-2,5.497697163E-1
1.172843750E1,-1.363168329E-1,-5.478990170E-1,1.421908361E-1,5.822317800E-1
1.173846750E1,-4.991674813E-2,-5.824581081E-1,2.474670303E-1,6.348141937E-1
1.174849750E1,1.620920173E-1,-6.114570817E-1,4.256802231E-1,7.624678598E-1
1.175852750E1,3.571693109E-1,-7.453150508E-1,5.940168840E-1,1.017801798E0
1.176855650E1,5.038490179E-1,-8.793399578E-1,7.263545769E-1,1.246873516E0
1.177858650E1,6.305950917E-1,-1.019991807E0,8.044342017E-1,1.444004100E0
1.178861650E1,7.184454869E-1,-1.139485213E0,8.130383795E-1,1.573410905E0
1.179864650E1,7.945983079E-1,-1.202883357E0,7.432331496E-1,1.621946471E0
1.180867650E1,7.873495147E-1,-1.208745191E0,5.628091246E-1,1.548463207E0
1.181870650E1,7.587542912E-1,-1.165291607E0,3.178072804E-1,1.426398988E0
1.182873650E1,7.877642284E-1,-1.087365472E0,1.039915609E-1,1.346755506E0
1.183876550E1,8.062279082E-1,-9.740022862E-1,-5.901360869E-2,1.265767158E0
1.184879550E1,8.588942181E-1,-8.610045514E-1,-1.141645467E-1,1.221499758E0
1.185882550E1,8.935529311E-1,-7.283332747E-1,9.857820868E-3,1.152824087E0
1.186885550E1,8.632188188E-1,-6.782980657E-1,2.787163049E-1,1.132659602E0
1.187888550E1,8.524886665E-1,-6.089635366E-1,5.457919729E-1,1.181296911E0
1.188891550E1,7.857557099E-1,-5.814728522E-1,7.246980608E-1,1.216844276E0
1.189894550E1,7.350466092E-1,-5.883225730E-1,6.832477337E-1,1.163290348E0
1.190897550E1,6.906966479E-1,-4.819956341E-1,4.465851885E-1,9.533205030E-1
1.191900450E1,6.827070855E-1,-2.910741028E-1,5.182562649E-2,7.439751296E-1
1.192903450E1,6.844596422E-1,-1.034123942E-1,-4.170532411E-1,8.081537794E-1
1.193906450E1,6.946630336E-1,5.107425928E-2,-8.419435054E-1,1.092718709E0
1.194909450E1,6.219242556E-1,1.581800473E-1,-1.148249313E0,1.315403813E0
1.195912450E1,5.508687448E-1,2.278882134E-1,-1.448288659E0,1.566183084E0
1.196915450E1,5.069542549E-1,2.430588144E-1,-1.626475539E0,1.720901765E0
1.197918450E1,4.847145894E-1,1.907352975E-1,-1.579020122E0,1.662718476E0
1.198921450E1,4.418131296E-1,1.159008774E-1,-1.344400594E0,1.419874928E0
1.199924350E1,4.651474304E-1,3.968388319E-2,-1.074166260E0,1.171225895E0
1.200927350E1,4.355146917E-1,-4.968671501E-3,-9.552555281E-1,1.049862304E0
1.201930350E1,3.626570325E-1,-1.280043215E-2,-8.970628685E-1,9.676806107E-1
1.202933350E1,2.961830710E-1,2.681445390E-2,-8.893211550E-1,9.377289284E-1
1.203936350E1,2.488723720E-1,7.239466935E-2,-8.570451093E-1,8.953796765E-1
1.204939350E1,1.832067515E-1,9.587884158E-2,-7.457807815E-1,7.739163005E-1
1.205942350E1,1.387130218E-1,9.538650602E-2,-5.241496736E-1,5.505204522E-1
1.206945350E1,9.998691257E-2,1.054776308E-1,-2.823977119E-1,3.176025519E-1
1.207948250E1,4.642469957E-3,1.242214653E-1,-1.445326459E-1,1.906363310E-1
1.208951250E1,-5.581255049E-2,1.123717904E-1,-1.083009589E-1,1.657454608E-1
1.209954250E1,-7.388472263E-2,8.183090597E-2,-2.874842048E-2,1.139373560E-1
1.210957250E1,-9.071308237E-2,8.118917406E-2,6.868256450E-2,1.397778236E-1
1.211960250E1,-1.617818225E-1,4.590707481E-2,1.289135635E-1,2.118950789E-1
1.212963250E1,-2.632855393E-1,2.241617829E-2,1.107638061E-1,2.865141899E-1
1.213966250E1,-2.977025796E-1,7.441459000E-3,2.147506893E-2,2.985688862E-1
1.214969250E1,-2.285746034E-1,5.632593602E-2,-8.926359415E-2,2.517676501E-1
1.215972150E1,-7.108101927E-2,1.831549671E-1,-1.863659656E-1,2.707960975E-1
1.216975150E1,8.850729335E-2,3.301478291E-1,-2.919152248E-1,4.494948592E-1
1.217978150E1,2.112547852E-1,4.541696119E-1,-3.388747984E-1,6.047600761E-1
1.218981150E1,3.303378270E-1,5.660438043E-1,-3.750012356E-1,7.550858197E-1
1.219984150E1,3.825220706E-1,6.454557171E-1,-3.968651444E-1,8.487862865E-1
1.220987150E1,3.410436403E-1,6.886982158E-1,-4.200008225E-1,8.757948892E-1
1.221990150E1,3.108717152E-1,7.223983508E-1,-4.685438222E-1,9.154419227E-1
1.222993150E1,3.336779028E-1,7.724730286E-1,-4.879255879E-1,9.726905479E-1
1.223996050E1,3.579011631E-1,8.434383461E-1,-4.860112095E-1,1.037153982E0
1.224999050E1,3.260033226E-1,8.975183666E-1,-5.081949610E-1,1.081702132E0
1.226002050E1,3.385909892E-1,9.445100999E-1,-4.482592463E-1,1.098944739E0
1.227005050E1,3.394764769E-1,9.451755130E-1,-3.935924578E-1,1.078664012E0
1.228008050E1,2.851035292E-1,9.568582499E-1,-4.091080445E-1,1.078995424E0
1.229011050E1,2.758601776E-1,9.607662365E-1,-4.501426345E-1,1.096265930E0
1.230014000E1,2.186402754E-1,9.863276321E-1,-3.959389454E-1,1.085086824E0
1.231016900E1,1.840719385E-1,9.683801883E-1,-3.088300502E-1,1.032965957E0
1.232019900E1,1.450939969E-1,9.280069184E-1,-2.522868901E-1,9.725727652E-1
1.233022900E1,9.114773149E-2,9.107190406E-1,-1.535531455E-1,9.280601535E-1
1.234025900E1,3.343152858E-2,9.033325455E-1,-5.357452869E-2,9.055371803E-1
1.235028900E1,5.737801457E-2,8.770893645E-1,-2.837653756E-2,8.794220931E-1
1.236031900E1,9.092710873E-2,8.906627986E-1,-5.709104419E-2,8.971105546E-1
1.237034900E1,1.043687612E-1,9.380018565E-1,-1.516604018E-1,9.558981110E-1
1.238037900E1,1.039655226E-1,1.024484223E0,-3.252402610E-1,1.079887948E0
1.239040800E1,9.614673542E-2,1.101480358E0,-4.834659165E-1,1.206748717E0
1.240043800E1,1.273234863E-1,1.086892432E0,-4.286108476E-1,1.175267496E0
1.241046800E1,2.961728749E-1,1.035134341E0,-7.167926252E-2,1.079054861E0
1.242049800E1,3.639650546E-1,8.753237978E-1,4.977758074E-1,1.070720816E0
1.243052800E1,3.083033257E-1,6.695181790E-1,1.089178986E0,1.315148811E0
1.244055800E1,2.038165422E-1,4.100228414E-1,1.628206900E0,1.691365609E0
1.245058800E1,4.338060256E-2,1.223065022E-1,2.097068810E0,2.101080282E0
1.246061700E1,-1.856927684E-1,-1.812797651E-1,2.509880481E0,2.523260626E0
1.247064700E1,-4.414601771E-1,-5.196806467E-1,2.738018956E0,2.821648962E0
1.248067700E1,-7.137238602E-1,-8.292462766E-1,2.647856060E0,2.864994389E0
1.249070700E1,-9.387342203E-1,-1.067848928E0,2.386944526E0,2.778313777E0
1.250073700E1,-9.524992968E-1,-1.233928564E0,2.246140650E0,2.734041410E0
1.251076700E1,-7.817242739E-1,-1.311491295E0,2.196183794E0,2.674757094E0
1.252079700E1,-4.588075503E-1,-1.318085492E0,2.251731173E0,2.649178553E0
1.253082700E1,-3.561210148E-3,-1.354508383E0,2.290798175E0,2.661289522E0
1.254085600E1,3.116172718E-1,-1.375836687E0,2.011791263E0,2.457099103E0
1.255088600E1,4.320804026E-1,-1.310146435E0,1.302457346E0,1.897253882E0
1.256091600E1,3.896559660E-1,-1.061923067E0,2.866334349E-1,1.166906637E0
1.257094600E1,1.274003406E-1,-7.679414365E-1,-8.674104685E-1,1.165489518E0
1.258097600E1,-2.436324994E-1,-5.317378977E-1,-1.865730740E0,1.955262944E0
1.259100600E1,-6.758488132E-1,-4.155996233E-1,-2.499419813E0,2.622326079E0
1.260103600E1,-1.038171823E0,-4.533296594E-1,-2.663314344E0,2.894227325E0
1.261106500E1,-1.292967023E0,-5.937558058E-1,-2.511656865E0,2.886646824E0
1.262109500E1,-1.520759196E0,-7.189046395E-1,-2.160950226E0,2.738473716E0
1.263112500E1,-1.626326435E0,-8.259063470E-1,-1.668376102E0,2.471950199E0
1.264115500E1,-1.607782868E0,-8.423805848E-1,-1.169554228E0,2.159265591E0
1.265118500E1,-1.670450840E0,-8.376852706E-1,-8.903140122E-1,2.069971416E0
1.266121500E1,-1.675322009E0,-8.000528830E-1,-8.147323179E-1,2.027455844E0
1.267124500E1,-1.581259898E0,-6.696342462E-1,-8.151112175E-1,1.900841704E0
1.268127500E1,-1.467012905E0,-5.254705596E-1,-7.898693722E-1,1.747037435E0
1.269130400E1,-1.273930828E0,-4.311149177E-1,-6.250164825E-1,1.483039254E0
1.270133400E1,-9.837512027E-1,-3.479531854E-1,-1.931756330E-1,1.061204350E0
1.271136400E1,-7.834462059E-1,-3.079073596E-1,4.503554732E-1,9.546805496E-1
1.272139400E1,-6.561032045E-1,-3.138533932E-1,1.055754547E0,1.282026923E0
1.273142400E1,-6.161933995E-1,-3.874259841E-1,1.479601083E0,1.648942863E0
1.274145400E1,-5.118999761E-1,-4.279144442E-1,1.828471112E0,1.946396405E0
1.275148400E1,-4.940868721E-1,-5.233290169E-1,2.016491840E0,2.141082539E0
1.276151300E1,-5.456610683E-1,-6.591574976E-1,2.046254168E0,2.217969956E0
1.277154300E1,-7.144844368E-1,-7.991515347E-1,1.726023216E0,2.031818724E0
1.278157300E1,-9.794987420E-1,-8.940401503E-1,1.014310652E0,1.669596261E0
1.279160300E1,-1.252064580E0,-8.878596434E-1,1.994239676E-1,1.547814710E0
1.280163300E1,-1.439740907E0,-7.726200861E-1,-4.709207153E-1,1.700459348E0
1.281166300E1,-1.448636276E0,-6.043907216E-1,-9.162019747E-1,1.817487624E0
1.282169300E1,-1.407775202E0,-4.669984031E-1,-1.139453931E0,1.870367287E0
1.283172200E1,-1.318008893E0,-3.381514978E-1,-1.132766470E0,1.770495342E0
1.284175200E1,-1.183923029E0,-2.961187881E-1,-1.022216672E0,1.591944409E0
1.285178200E1,-9.378657626E-1,-2.378682411E-1,-7.147192025E-1,1.202911895E0
1.286181200E1,-6.874167254E-1,-1.594354445E-1,-2.958270121E-1,7.651634050E-1
1.287184200E1,-4.637028392E-1,-1.258905530E-1,-5.718518436E-2,4.838790136E-1
1.288187200E1,-3.561183105E-1,-1.466481686E-1,4.197891533E-2,3.874121394E-1
1.289190200E1,-3.215239169E-1,-1.556897181E-1,-6.896381557E-2,3.638309021E-1
1.290193200E1,-2.300383077E-1,-1.278119481E-1,-2.044204134E-1,3.332284839E-1
1.291196100E1,-2.009682173E-1,-4.095419079E-2,-3.252496165E-1,3.845162976E-1
1.292199100E1,-1.789340083E-1,6.224010229E-2,-3.436051959E-1,3.923719413E-1
1.293202100E1,-9.834680513E-2,1.601043659E-1,-2.741373503E-1,3.323504008E-1
1.294205100E1,2.159113616E-2,2.474807712E-1,-1.414722133E-1,2.858798636E-1
1.295208100E1,7.242580578E-2,3.065323868E-1,2.969800830E-2,3.163693620E-1
1.296211100E1,1.482897744E-1,3.575657156E-1,1.227909440E-1,4.061043143E-1
1.297214100E1,2.288977352E-1,4.128721896E-1,1.669947249E-1,5.007443022E-1
1.298217000E1,2.324366163E-1,4.646206328E-1,1.005551523E-1,5.291601380E-1
1.299220000E1,2.418905407E-1,4.797327617E-1,-2.429751992E-2,5.378149550E-1
1.300223000E1,1.951338655E-1,4.807577786E-1,-9.273450136E-2,5.270720585E-1
1.301226000E1,1.417015703E-1,4.831814495E-1,-9.605221152E-2,5.126106471E-1
1.302229000E1,9.381462827E-2,4.729046756E-1,-1.462809634E-1,5.038235177E-1
1.303232000E1,4.155294567E-2,4.780856010E-1,-1.716730821E-1,5.096706155E-1
1.304235000E1,-6.030555099E-2,4.791407311E-1,-2.276549095E-1,5.338907730E-1
1.305237900E1,-1.746336736E-1,5.060531259E-1,-3.130283511E-1,6.201398509E-1
1.306240900E1,-3.353242229E-1,5.559289983E-1,-4.056681275E-1,7.655494859E-1
1.307243900E1,-4.686708529E-1,5.985636789E-1,-5.320942855E-1,9.279305872E-1
1.308246900E1,-5.104679199E-1,6.504635650E-1,-6.167707390E-1,1.031545681E0
1.309249900E1,-5.469093758E-1,7.214429158E-1,-6.724713153E-1,1.127744393E0
1.310252900E1,-6.315872911E-1,8.260373247E-1,-7.564519501E-1,1.285869247E0
1.311255900E1,-6.730181761E-1,8.853102574E-1,-7.620524132E-1,1.348128925E0
1.312258800E1,-7.324853826E-1,9.350510591E-1,-7.610051769E-1,1.410667997E0
1.313261800E1,-8.188494886E-1,9.727720320E-1,-8.078618395E-1,1.506466283E0
1.314264800E1,-8.337239282E-1,1.047028747E0,-8.534110647E-1,1.587348491E0
1.315267800E1,-8.690149444E-1,1.130361218E0,-7.887636638E-1,1.629432900E0
1.316270800E1,-8.106750812E-1,1.171685830E0,-5.430560607E-1,1.524779216E0
1.317273800E1,-7.260133919E-1,1.146906207E0,-1.218325853E-1,1.362839856E0
1.318276800E1,-6.470587313E-1,1.094323951E0,3.226750875E-1,1.311620800E0
1.319279800E1,-6.250332932E-1,9.511627695E-1,7.093485349E-1,1.341101255E0
1.320282700E1,-7.583325608E-1,8.111719483E-1,9.544860345E-1,1.464278591E0
1.321285700E1,-9.307982330E-1,7.642579830E-1,8.937147528E-1,1.499733868E0
1.322288700E1,-1.124370746E0,8.064509064E-1,5.741340119E-1,1.498066254E0
1.323291700E1,-1.218957937E0,7.861853340E-1,2.751109117E-1,1.476357628E0
1.324294700E1,-1.018642562E0,7.000871301E-1,3.593447310E-1,1.287199788E0
1.325297700E1,-6.257962087E-1,6.381002122E-1,1.008314917E0,1.347401851E0
1.326300700E1,-2.695787148E-1,5.976120445E-1,1.875232465E0,1.986532063E0
1.327303600E1,-6.702487886E-2,4.690838125E-1,2.682335921E0,2.723868196E0
1.328306600E1,2.216211677E-2,1.728279072E-1,3.144439035E0,3.149263007E0
1.329309600E1,1.663825214E-2,-1.595865950E-1,3.209380551E0,3.213388902E0
1.330312700E1,-1.278123866E-1,-4.343893585E-1,2.957997056E0,2.992453292E0
1.331315700E1,-3.507047389E-1,-5.876811334E-1,2.551990374E0,2.642161577E0
1.332318700E1,-5.354279293E-1,-6.934958562E-1,2.126650459E0,2.300056901E0
1.333321700E1,-6.060036761E-1,-7.852968496E-1,1.813801033E0,2.067318501E0
1.334324600E1,-6.567765114E-1,-8.643941823E-1,1.514933469E0,1.863747865E0
1.335327600E1,-7.452314356E-1,-9.824047351E-1,1.006601098E0,1.591770940E0
1.336330600E1,-8.295380527E-1,-1.057431529E0,2.773685217E-1,1.372307588E0
1.337333600E1,-9.191394697E-1,-1.070396267E0,-3.644820946E-1,1.457193443E0
1.338336600E1,-8.941475929E-1,-1.094152335E0,-7.528132278E-1,1.601061213E0
1.339339600E1,-7.552811913E-1,-1.074041129E0,-8.414768976E-1,1.559518321E0
1.340342600E1,-6.282230955E-1,-1.068978318E0,-7.929122633E-1,1.471763826E0
1.341345500E1,-4.251295616E-1,-1.151519368E0,-6.651570332E-1,1.396125309E0
1.342348500E1,-1.241874053E-1,-1.225900337E0,-3.605580282E-1,1.283844320E0
1.343351500E1,1.325784521E-1,-1.282332107E0,-6.448894143E-2,1.290779417E0
1.344354500E1,4.525379464E-1,-1.294686397E0,1.803094196E-1,1.383298574E0
1.345357500E1,7.987031995E-1,-1.254430656E0,2.893810415E-1,1.515013023E0
1.346360500E1,1.038992626E0,-1.214150941E0,2.473565179E-1,1.617050844E0
1.347363500E1,1.214814893E0,-1.184568416E0,1.002551901E-1,1.699714287E0
1.348366400E1,1.308949802E0,-1.151365294E0,-2.034684867E-1,1.755104285E0
1.349369400E1,1.295075675E0,-1.131720403E0,-5.320521855E-1,1.800303198E0
1.350372400E1,1.221940456E0,-1.124673631E0,-7.860493863E-1,1.837363027E0
1.351375400E1,1.120185163E0,-1.103916893E0,-8.992017800E-1,1.811632177E0
1.352378400E1,9.969178167E-1,-1.147967477E0,-8.634501493E-1,1.748490956E0
1.353381400E1,9.385297139E-1,-1.176811792E0,-6.446350604E-1,1.637460955E0
1.354384400E1,9.200197680E-1,-1.135870465E0,-3.633021265E-1,1.506196043E0
1.355387300E1,9.292006275E-1,-1.048120715E0,-1.177775413E-1,1.405646609E0
1.356390300E1,1.006196471E0,-9.218147171E-1,1.311553860E-1,1.370903150E0
1.357393300E1,1.121883925E0,-7.606888425E-1,4.548145598E-1,1.429729814E0
1.358396300E1,1.200043657E0,-5.952003604E-1,7.706337869E-1,1.545394668E0
1.359399300E1,1.231905866E0,-4.615797883E-1,1.078308427E0,1.700998832E0
1.360402300E1,1.072374819E0,-3.892944619E-1,1.128226692E0,1.604504098E0
1.361405300E1,8.381925166E-1,-3.099714267E-1,8.768279940E-1,1.251988942E0
1.362408200E1,5.682311015E-1,-1.851403892E-1,4.234056562E-1,7.324178439E-1
1.363411200E1,3.081542583E-1,-8.785324574E-2,-1.666719586E-1,3.611880140E-1
1.364414200E1,1.619111556E-1,3.936696410E-2,-7.075475925E-1,7.269034158E-1
1.365417200E1,1.352346960E-1,1.785915077E-1,-1.037703608E0,1.061608274E0
1.366420200E1,1.106540246E-1,3.051612148E-1,-1.131618077E0,1.177254073E0
1.367423200E1,1.046419175E-1,3.576887995E-1,-1.036305538E0,1.101281243E0
1.368426200E1,1.543919286E-1,3.604089242E-1,-8.665982902E-1,9.511698360E-1
1.369429100E1,2.043872304E-1,3.218757731E-1,-6.935148597E-1,7.914170922E-1
1.370432100E1,2.448264277E-1,3.517737561E-1,-6.139079422E-1,7.487107029E-1
1.371435100E1,2.447417893E-1,3.750874820E-1,-5.298893005E-1,6.938096521E-1
1.372438100E1,2.003646384E-1,3.969522679E-1,-4.496766114E-1,6.323971428E-1
1.373441100E1,8.704618379E-2,3.921192518E-1,-4.477897149E-1,6.015398362E-1
1.374444100E1,-2.246471018E-2,3.821149582E-1,-5.245414370E-1,6.493536969E-1
1.375447100E1,-1.803792939E-1,3.349755827E-1,-6.149826604E-1,7.231521301E-1
1.376450000E1,-2.196918789E-1,3.214565277E-1,-6.510401005E-1,7.585855477E-1
1.377453000E1,-1.786618204E-1,3.175020558E-1,-5.584248823E-1,6.667577901E-1
1.378456000E1,-1.753623828E-2,3.050115260E-1,-3.816173601E-1,4.888469701E-1
1.379459000E1,1.463713029E-1,2.903265363E-1,-1.433374751E-1,3.553303924E-1
1.380462000E1,2.315611419E-1,2.274944034E-1,1.660316885E-2,3.250383535E-1
1.381465000E1,2.829184064E-1,1.074285543E-1,1.320944488E-1,3.302009424E-1
1.382468000E1,2.334550551E-1,-1.942445040E-3,1.706352013E-1,2.891736637E-1
1.383470900E1,1.429660307E-1,-8.751615375E-2,1.378849465E-1,2.170498135E-1
1.384473900E1,5.528761670E-2,-1.187084180E-1,5.564093471E-2,1.422825452E-1
1.385476900E1,-2.268237278E-2,-1.115461636E-1,-3.591418326E-2,1.193602329E-1
1.386479900E1,-1.047296257E-1,-7.407837510E-2,-1.186943847E-1,1.747691538E-1
1.387482900E1,-1.502882796E-1,-1.544571251E-2,-1.939959973E-1,2.458853066E-1
1.388485900E1,-2.445151366E-1,1.139622331E-2,-1.958711994E-1,3.135012801E-1
1.389488900E1,-4.040304686E-1,4.660143167E-2,-2.027919638E-1,4.544633028E-1
1.390491800E1,-5.166088850E-1,8.109415680E-2,-2.396428710E-1,5.752301348E-1
1.391494800E1,-4.987623058E-1,1.417487866E-1,-2.670400000E-1,5.832383027E-1
1.392497800E1,-4.320997350E-1,2.584305596E-1,-2.770498484E-1,5.746765644E-1
1.393500800E1,-3.950460025E-1,3.668692204E-1,-1.972645909E-1,5.740798619E-1
1.394503800E1,-4.217362031E-1,4.045346448E-1,-1.120525324E-1,5.950340106E-1
1.395506800E1,-3.418289579E-1,4.433282894E-1,-1.075302958E-1,5.700436590E-1
1.396509800E1,-2.729426911E-1,5.263128510E-1,-1.934516215E-1,6.236396873E-1
1.397512700E1,-2.317179935E-1,6.012823418E-1,-3.711748177E-1,7.436426752E-1
1.398515700E1,-3.693911245E-1,6.364150447E-1,-5.535798794E-1,9.208282114E-1
1.399518700E1,-6.297973122E-1,6.009835491E-1,-5.985917455E-1,1.056474306E0
1.400521700E1,-5.563802572E-1,6.619141674E-1,-5.482162285E-1,1.023831231E0
1.401524700E1,-3.243693182E-1,7.732814062E-1,-3.699311149E-1,9.165307510E-1
1.402527700E1,-1.524817894E-1,8.898307398E-1,-6.363349378E-2,9.050406969E-1
1.403530600E1,-7.591381609E-2,9.680737942E-1,2.146045089E-1,9.944771862E-1
1.404533600E1,-1.238283862E-1,9.556025603E-1,3.982409942E-1,1.042643569E0
1.405536600E1,-1.595808940E-1,9.775904301E-1,4.407555145E-1,1.084165363E0
1.406539600E1,-2.485671839E-1,9.793983892E-1,3.426427442E-1,1.066963401E0
1.407542600E1,-2.772938235E-1,8.753115186E-1,2.882151067E-1,9.623565176E-1
1.408545600E1,-2.569611543E-1,6.380569428E-1,5.231959927E-1,8.642220455E-1
1.409548600E1,-3.284880969E-1,3.117559969E-1,1.055710693E0,1.148747709E0
1.410551500E1,-5.516076136E-1,-1.077852345E-1,1.707514440E0,1.797635719E0
1.411554500E1,-8.283611543E-1,-5.706666130E-1,2.404682055E0,2.606595168E0
1.412557500E1,-1.107990648E0,-1.055028323E0,2.710131245E0,3.112159926E0
1.413560500E1,-1.393051182E0,-1.401152499E0,2.339135352E0,3.061923271E0
1.414563500E1,-1.757773305E0,-1.477338211E0,1.355280508E0,2.666285888E0
1.415566500E1,-1.985282765E0,-1.403535824E0,8.241825879E-2,2.432704922E0
1.416569500E1,-1.934074166E0,-1.183588715E0,-8.671526062E-1,2.427648815E0
1.417572400E1,-2.059045829E0,-8.901383033E-1,-1.405618018E0,2.647220795E0
1.418575400E1,-2.220066161E0,-7.372116870E-1,-1.709884316E0,2.897564358E0
1.419578400E1,-2.134774581E0,-7.230120161E-1,-1.602166325E0,2.765311161E0
1.420581400E1,-1.751321633E0,-7.466292125E-1,-7.090433103E-1,2.031581911E0
1.421584400E1,-1.250724106E0,-8.350788742E-1,1.000762069E0,1.806430799E0
1.422587400E1,-8.308893442E-1,-9.919582084E-1,2.725517024E0,3.017084891E0
1.423590300E1,-6.509849904E-1,-1.279844994E0,4.029850157E0,4.278022552E0
1.424593300E1,-6.413201277E-1,-1.634192110E0,4.727052855E0,5.042509698E0
1.425596300E1,-6.587810831E-1,-1.825963826E0,4.714522272E0,5.098515143E0
1.426599300E1,-7.910111873E-1,-1.889938797E0,4.014146290E0,4.506765780E0
1.427602300E1,-9.464464054E-1,-1.738795582E0,2.732630746E0,3.374380190E0
1.428605300E1,-1.166045606E0,-1.560399371E0,1.484722075E0,2.449266868E0
1.429608300E1,-1.376557941E0,-1.512294913E0,6.680174911E-1,2.151324019E0
1.430611162E1,-1.641648625E0,-1.512379990E0,1.403881395E-1,2.236517890E0
1.431614162E1,-1.963429381E0,-1.607663000E0,-1.976429057E-1,2.545328657E0
1.432617162E1,-2.247530095E0,-1.734400814E0,-4.390206456E-1,2.872677643E0
1.433620162E1,-2.491804399E0,-1.861993784E0,-6.964554244E-1,3.187657474E0
1.434623162E1,-2.541929655E0,-1.886163250E0,-7.650327390E-1,3.256423386E0
1.435626162E1,-2.484140161E0,-1.822655472E0,-6.968442643E-1,3.158894939E0
1.436629162E1,-2.417900417E0,-1.714380825E0,-7.762611473E-1,3.063972162E0
1.437632062E1,-2.206087077E0,-1.559946212E0,-8.759245992E-1,2.840333832E0
1.438635062E1,-1.944786557E0,-1.325243361E0,-9.527833253E-1,2.538948756E0
1.439638062E1,-1.667299922E0,-1.174885134E0,-9.708395272E-1,2.258931937E0
1.440641062E1,-1.411765634E0,-1.011907154E0,-1.015673053E0,2.012120783E0
1.441644062E1,-1.086076453E0,-7.695105368E-1,-8.695441175E-1,1.589910532E0
1.442647062E1,-7.903000197E-1,-5.337250739E-1,-5.005859792E-1,1.077043592E0
1.443649962E1,-4.445146894E-1,-3.467916360E-1,5.250916600E-2,5.662287175E-1
1.444652962E1,-2.482197131E-1,-2.198801592E-1,4.880945724E-1,5.900818774E-1
1.445655962E1,-2.545990254E-1,-1.842393333E-1,6.267028195E-1,7.010857434E-1
1.446658962E1,-4.332345334E-1,-2.120513222E-1,6.325979823E-1,7.955112390E-1
1.447661962E1,-6.482392842E-1,-2.605647933E-1,6.347251993E-1,9.439196257E-1
1.448664963E1,-7.788157958E-1,-2.585244074E-1,6.532064939E-1,1.048841092E0
1.449667963E1,-8.300371125E-1,-1.772001627E-1,7.019740266E-1,1.101421373E0
1.450670863E1,-8.060528572E-1,-6.364314169E-2,7.587592614E-1,1.108822472E0
1.451673863E1,-7.975993913E-1,-2.016119957E-2,7.427665418E-1,1.090079538E0
1.452676863E1,-7.743004297E-1,-2.639228493E-2,7.239542949E-1,1.060352549E0
1.453679863E1,-7.652963023E-1,-3.183370382E-2,7.261084092E-1,1.055426566E0
1.454682863E1,-8.431065166E-1,-5.457381785E-2,6.568072093E-1,1.070141397E0
1.455685863E1,-9.874742711E-1,-1.382869425E-1,5.445219576E-1,1.136104254E0
1.456688763E1,-1.124513125E0,-2.470185488E-1,4.307170147E-1,1.229253871E0
1.457691763E1,-1.305316050E0,-3.684114236E-1,3.574239206E-1,1.402614996E0
1.458694763E1,-1.515452409E0,-4.759911284E-1,4.108218634E-1,1.640712699E0
1.459697762E1,-1.577046686E0,-4.964245158E-1,4.673118138E-1,1.718107646E0
1.460700762E1,-1.612285662E0,-4.536766917E-1,4.536977416E-1,1.735260568E0
1.461703762E1,-1.673548841E0,-4.894151661E-1,3.711525983E-1,1.782707822E0
1.462706762E1,-1.715910457E0,-5.259886229E-1,1.149843264E-1,1.798397654E0
1.463709662E1,-1.849979218E0,-5.119991595E-1,-2.620833153E-1,1.937331647E0
1.464712662E1,-1.975628719E0,-4.751225245E-1,-4.827367687E-1,2.088512638E0
1.465715662E1,-2.008961796E0,-4.249449357E-1,-4.722006708E-1,2.107007159E0
1.466718662E1,-1.980773831E0,-3.282392979E-1,-3.858273554E-1,2.044521644E0
1.467721662E1,-1.993070964E0,-3.349214959E-1,-2.645461625E-1,2.038256350E0
1.468724662E1,-1.976102782E0,-4.204621679E-1,-7.522676826E-2,2.021739278E0
1.469727562E1,-1.912872893E0,-5.427341715E-1,1.873196465E-1,1.997180947E0
1.470730562E1,-1.778352580E0,-6.663624367E-1,4.738758981E-1,1.957328578E0
1.471733562E1,-1.545019147E0,-7.193174529E-1,8.645856786E-1,1.911023328E0
1.472736562E1,-1.273796634E0,-6.448189554E-1,1.243622662E0,1.893395542E0
1.473739562E1,-9.429874849E-1,-6.608631304E-1,1.384443496E0,1.800735757E0
1.474742562E1,-6.841539060E-1,-6.153937197E-1,1.305718338E0,1.597396750E0
1.475745562E1,-3.987995495E-1,-5.312329906E-1,1.198650557E0,1.370406046E0
1.476748462E1,-2.069054800E-1,-4.366642177E-1,1.171951586E0,1.267657697E0
1.477751462E1,-1.650671902E-1,-3.826552409E-1,1.112214092E0,1.187725725E0
1.478754462E1,-1.526235844E-1,-3.624493101E-1,9.429851460E-1,1.021706634E0
1.479757463E1,-1.457697706E-1,-2.943839192E-1,6.643343300E-1,7.411145795E-1
1.480760463E1,-1.913735211E-1,-2.422042438E-1,3.908150303E-1,4.980191846E-1
1.481763463E1,-2.555098754E-1,-2.022876415E-1,1.619327903E-1,3.639063271E-1
1.482766363E1,-2.960701101E-1,-1.866214889E-1,7.400060713E-2,3.577166198E-1
1.483769363E1,-3.817997932E-1,-1.490747631E-1,4.099365950E-2,4.119160682E-1
1.484772363E1,-5.890224847E-1,-2.021274278E-1,1.375738746E-1,6.377535226E-1
1.485775363E1,-6.944369656E-1,-2.699384648E-1,1.773279244E-1,7.658685701E-1
1.486778363E1,-7.501680936E-1,-2.936354756E-1,6.652377248E-2,8.083312276E-1
1.487781363E1,-9.066132720E-1,-2.720905325E-1,-1.873406965E-1,9.649235303E-1
1.488784263E1,-1.025751314E0,-2.616851199E-1,-3.992496389E-1,1.131390797E0
1.489787263E1,-1.065523198E0,-2.486297491E-1,-5.088972116E-1,1.206703281E0
1.490790263E1,-1.077537910E0,-2.362324825E-1,-3.859308511E-1,1.168690017E0
1.491793262E1,-1.043506238E0,-2.718820792E-1,1.905315220E-2,1.078512011E0
1.492796262E1,-8.658084776E-1,-3.749515343E-1,4.671627098E-1,1.052831406E0
1.493799262E1,-6.991290638E-1,-5.107820615E-1,7.914007580E-1,1.173028099E0
1.494802262E1,-5.974819440E-1,-6.848320368E-1,1.100612047E0,1.427349456E0
1.495805162E1,-4.322039616E-1,-7.762476987E-1,1.470723256E0,1.718251335E0
1.496808162E1,-2.162016758E-1,-8.817779544E-1,1.628417984E0,1.864408930E0
1.497811162E1,1.117256731E-2,-9.833809277E-1,1.697496990E0,1.961799915E0
1.498814162E1,1.075946152E-1,-9.770214960E-1,1.612329955E0,1.888320812E0
1.499817162E1,1.930043095E-1,-8.788946924E-1,1.241561519E0,1.533356302E0
1.500820162E1,3.251987457E-1,-7.451305711E-1,5.923013109E-1,1.005880030E0
1.501823162E1,2.469305483E-1,-6.278137904E-1,2.073715031E-2,6.749480577E-1
1.502826062E1,7.917948604E-2,-6.042968738E-1,-2.129936010E-1,6.456085321E-1
1.503829062E1,3.931170791E-2,-6.052008533E-1,-1.712871659E-1,6.302005843E-1
1.504832062E1,7.337904811E-2,-6.084823108E-1,3.010672867E-2,6.136298741E-1
1.505835062E1,1.019742715E-1,-6.132048145E-1,4.237769544E-1,7.523335721E-1
1.506838062E1,1.391824436E-1,-6.903766590E-1,8.512008172E-1,1.104778039E0
1.507841062E1,1.619108632E-1,-8.045552391E-1,1.107201859E0,1.378194550E0
1.508843962E1,1.535803351E-1,-8.776755479E-1,1.086100427E0,1.404818645E0
1.509846962E1,2.320876837E-2,-8.940337184E-1,6.244019401E-1,1.090739529E0
1.510849962E1,-5.164465517E-2,-8.376393700E-1,-4.750862718E-3,8.392433826E-1
1.511852963E1,-1.772706217E-1,-7.238236097E-1,-4.480902618E-1,8.695575737E-1
1.512855963E1,-2.956749845E-1,-6.029686788E-1,-6.433030647E-1,9.299643848E-1
1.513858963E1,-3.642882594E-1,-5.398810226E-1,-7.746192491E-1,1.012033811E0
1.514861863E1,-3.925586700E-1,-5.183489433E-1,-8.454804862E-1,1.066595138E0
1.515864863E1,-4.817211074E-1,-5.058142671E-1,-7.813365304E-1,1.048041064E0
1.516867863E1,-6.033712596E-1,-5.928410089E-1,-5.256009525E-1,9.958783560E-1
1.517870863E1,-7.156249362E-1,-7.425282678E-1,-1.659264386E-1,1.044508909E0
1.518873863E1,-7.404416889E-1,-9.179321659E-1,9.411795259E-2,1.183094056E0
1.519876863E1,-7.314486712E-1,-9.931244355E-1,3.034400868E-1,1.270192580E0
1.520879763E1,-7.079449108E-1,-9.704249597E-1,4.242570108E-1,1.273932734E0
1.521882763E1,-6.560625663E-1,-9.222667068E-1,4.297457922E-1,1.210650823E0
1.522885762E1,-6.470625320E-1,-8.291974524E-1,3.754198962E-1,1.116780387E0
1.523888762E1,-7.025707349E-1,-7.862511152E-1,2.266439259E-1,1.078500776E0
1.524891762E1,-7.604751268E-1,-8.550307435E-1,1.277692634E-1,1.151401309E0
1.525894762E1,-9.369119355E-1,-9.135151792E-1,1.531461793E-1,1.317485374E0
1.526897762E1,-1.069580289E0,-9.228701395E-1,8.729132831E-2,1.415383716E0
1.527900662E1,-1.189281856E0,-9.661377811E-1,-1.602254033E-2,1.532341433E0
1.528903662E1,-1.357677281E0,-1.022544993E0,-7.453270376E-2,1.701305672E0
1.529906738E1,-1.444792901E0,-9.507540491E-1,-1.684191066E-1,1.737735533E0
1.530909738E1,-1.336326027E0,-8.072320944E-1,-5.783773363E-2,1.562285540E0
1.531912738E1,-9.242470126E-1,-6.104197857E-1,3.451716650E-1,1.160167373E0
1.532915738E1,-4.543112607E-1,-4.804037297E-1,4.413338041E-1,7.949603712E-1
1.533918638E1,-8.087488621E-2,-3.385871154E-1,2.996885133E-1,4.593421241E-1
1.534921638E1,1.263941444E-1,-5.124675214E-2,-1.740698558E-1,2.211380204E-1
1.535924638E1,2.727397196E-1,2.058468416E-1,-5.895648140E-1,6.814297812E-1
1.536927637E1,3.721637280E-1,2.033331236E-1,-8.938860762E-1,9.893849185E-1
1.537930637E1,3.844662698E-1,2.077106416E-1,-9.360749066E-1,1.033050945E0
1.538933637E1,3.142900340E-1,2.031033280E-1,-8.719139940E-1,9.488220066E-1
1.539936637E1,2.806001316E-1,2.242176238E-1,-8.979300106E-1,9.671030351E-1
1.540939537E1,2.151012298E-1,1.748916820E-1,-7.952856481E-1,8.422202216E-1
1.541942537E1,8.625651732E-2,1.443899739E-1,-5.057145721E-1,5.329501663E-1
1.542945537E1,2.987561747E-2,1.036278641E-1,-2.494515753E-1,2.717671341E-1
1.543948537E1,7.384507120E-2,3.527537495E-2,-2.802628934E-2,8.650386993E-2
1.544951537E1,1.269879292E-1,9.777421653E-3,2.986553103E-1,3.246791131E-1
1.545954537E1,1.310147604E-1,-1.737412423E-2,3.675197232E-1,3.905604621E-1
1.546957437E1,1.551392028E-1,6.647114754E-3,3.349940014E-1,3.692334456E-1
1.547960437E1,2.029403369E-1,3.374106556E-2,3.397501266E-1,3.971818077E-1
1.548963437E1,2.807246773E-1,7.919322699E-2,3.158706826E-1,4.299444147E-1
1.549966437E1,3.514901662E-1,1.205888826E-1,3.158215660E-1,4.876784566E-1
1.550969437E1,4.052237391E-1,1.513604397E-1,3.803391588E-1,5.759983829E-1
1.551972437E1,4.992386346E-1,1.727811295E-1,5.104584181E-1,7.346157700E-1
1.552975337E1,4.858176666E-1,1.258218482E-1,6.291855472E-1,8.048132675E-1
1.553978337E1,4.110231538E-1,3.589430273E-2,6.734483850E-1,7.897855159E-1
1.554981337E1,3.379370512E-1,-4.921396762E-2,7.334794092E-1,8.090831286E-1
1.555984337E1,2.987390716E-1,-9.549964964E-2,6.906210726E-1,7.585002848E-1
1.556987338E1,2.562495482E-1,-1.163832727E-1,4.970238554E-1,5.711756385E-1
1.557990338E1,1.760276498E-1,-1.574432981E-1,3.008696508E-1,3.824874801E-1
1.558993238E1,1.293987362E-1,-1.832774663E-1,1.575754452E-1,2.741617835E-1
1.559996238E1,1.136827362E-1,-1.890419438E-1,5.457206368E-2,2.272415701E-1
1.560999238E1,1.717793553E-1,-1.185847494E-1,8.319652319E-2,2.247045864E-1
1.562002238E1,2.087840442E-1,-9.586276174E-2,1.189317816E-1,2.586990818E-1
1.563005238E1,2.532997741E-1,-7.824217737E-2,1.473416483E-1,3.033021187E-1
1.564008238E1,3.308797543E-1,-4.390352637E-2,3.338947248E-1,4.721171663E-1
1.565011138E1,4.399504991E-1,-1.001005313E-1,5.882012433E-1,7.413212938E-1
1.566014138E1,4.637337564E-1,-1.364795682E-1,7.112518036E-1,8.599737191E-1
1.567017138E1,4.399550307E-1,-1.611878550E-1,7.695830423E-1,9.009994520E-1
1.568020137E1,4.948998544E-1,-1.898547068E-1,7.129422337E-1,8.884015444E-1
1.569023137E1,5.420484392E-1,-2.109195936E-1,6.710258836E-1,8.880198882E-1
1.570026137E1,6.562382752E-1,-2.304931480E-1,7.052233243E-1,9.905128481E-1
1.571029037E1,7.255368438E-1,-2.267459598E-1,6.102662963E-1,9.748037723E-1
1.572032037E1,7.513042076E-1,-2.021043313E-1,4.014505309E-1,8.754808403E-1
1.573035037E1,7.337008725E-1,-1.806789637E-1,1.957887536E-1,7.805735675E-1
1.574038037E1,7.173832671E-1,-1.311334589E-1,4.720281780E-2,7.307960330E-1
1.575041037E1,6.543224350E-1,-1.479453734E-1,-1.809648925E-1,6.948193828E-1
1.576044037E1,4.834316372E-1,-8.937819958E-2,-4.245043480E-1,6.495371829E-1
1.577046937E1,4.194394898E-1,1.990918458E-2,-5.717577034E-1,7.093889855E-1
1.578049937E1,4.031436653E-1,9.290991783E-2,-5.331087774E-1,6.748051839E-1
1.579052937E1,3.447592901E-1,2.276557866E-1,-1.453518409E-1,4.379649334E-1
1.580055937E1,3.084395293E-1,3.069911009E-1,3.797620386E-1,5.775791593E-1
1.581058937E1,2.992458060E-1,2.705413127E-1,8.848953974E-1,9.725124774E-1
1.582061937E1,3.115434507E-1,1.554450122E-1,1.343275589E0,1.387664146E0
1.583064937E1,2.225579647E-1,-2.344938129E-2,1.760129440E0,1.774299177E0
1.584067837E1,7.256979346E-2,-2.459680966E-1,2.102121390E0,2.117706546E0
1.585070837E1,-1.712820496E-1,-4.554606771E-1,2.102717221E0,2.158286746E0
1.586073837E1,-3.884789946E-1,-5.499250773E-1,1.702851285E0,1.831129711E0
1.587076837E1,-5.248718047E-1,-5.074187431E-1,6.178337628E-1,9.563904802E-1
1.588079838E1,-6.631166473E-1,-3.830168912E-1,-5.576600665E-1,9.473174635E-1
1.589082838E1,-7.521953233E-1,-1.800226137E-1,-1.441578979E0,1.635957181E0
1.590085738E1,-7.694366426E-1,2.110874087E-2,-2.203243722E0,2.333829733E0
1.591088738E1,-8.187348101E-1,1.691242808E-1,-2.860002984E0,2.979689041E0
1.592091738E1,-1.041459786E0,2.800459617E-1,-2.998966157E0,3.186983250E0
1.593094738E1,-1.033443546E0,2.834212670E-1,-2.375776345E0,2.606270595E0
1.594097738E1,-9.245297986E-1,1.377422744E-1,-1.629397393E0,1.878473888E0
1.595100738E1,-9.341278569E-1,3.955582917E-2,-1.084508230E0,1.431893019E0
1.596103638E1,-9.227714677E-1,1.197275877E-2,-6.651248735E-1,1.137559504E0
1.597106638E1,-8.580105577E-1,4.353544414E-3,-2.926297545E-1,9.065501882E-1
1.598109638E1,-7.279062087E-1,9.838495821E-2,2.839407921E-2,7.350736510E-1
1.599112638E1,-5.406163099E-1,1.770706469E-1,2.632971972E-1,6.268535895E-1
1.600115637E1,-3.813256571E-1,2.554025790E-1,4.860778677E-1,6.685143437E-1
1.601118637E1,-3.776855461E-1,2.434765980E-1,5.699789804E-1,7.258121407E-1
1.602121537E1,-4.620966822E-1,1.345248440E-1,5.550750124E-1,7.346690049E-1
1.603124537E1,-6.772153806E-1,2.539533466E-2,5.654175675E-1,8.825885907E-1
1.604127537E1,-9.436290707E-1,-1.386822143E-1,6.533555979E-1,1.156089147E0
1.605130537E1,-1.165928808E0,-3.053164583E-1,8.344216472E-1,1.465901637E0
1.606133537E1,-1.477746639E0,-4.733043328E-1,9.125574052E-1,1.800142533E0
1.607136437E1,-1.729866883E0,-6.060384670E-1,8.081927919E-1,2.003221817E0
1.608139437E1,-1.886204619E0,-6.281698859E-1,6.000517952E-1,2.076638492E0
1.609142437E1,-1.855862102E0,-5.618545666E-1,2.966292500E-1,1.961604855E0
1.610145437E1,-1.678533739E0,-4.393746945E-1,-7.273059189E-2,1.736610311E0
1.611148437E1,-1.507708210E0,-2.620754215E-1,-3.560895860E-1,1.571199341E0
1.612151437E1,-1.344727745E0,-6.481316954E-2,-6.786331111E-1,1.507659231E0
1.613154337E1,-1.085041423E0,1.049882188E-1,-9.912416321E-1,1.473396548E0
1.614157337E1,-7.987933928E-1,2.078199846E-1,-1.069216007E0,1.350734208E0
1.615160337E1,-5.575565708E-1,3.221938616E-1,-9.364070284E-1,1.136457803E0
1.616163337E1,-3.484740262E-1,4.183358279E-1,-7.811891806E-1,9.522056226E-1
