Time (s),Linear Acceleration x (m/s^2),Linear Acceleration y (m/s^2),Linear Acceleration z (m/s^2),Absolute acceleration (m/s^2),label
25.08814688,1.026831587,-0.7260239169,2.947001367,3.204108439,0
25.09817688,0.8124592128,-1.077759228,2.983316669,3.274421059,0
25.10820687,0.5239049676,-1.340766257,2.523875792,2.905525698,0
25.11823588,0.2596833256,-1.575761761,1.531459454,2.212651942,0
25.12826587,0.07627780527,-1.735352156,0.5341267776,1.817293819,0
25.13829587,0.1324961525,-1.813573576,0.01548108816,1.818472989,0
25.14832587,0.3404383439,-1.810420758,-0.03499967873,1.842483803,0
25.15835487,0.609133983,-1.919134237,-0.01897889256,2.013574093,0
25.16838487,0.7885522869,-2.016768706,0.007751069069,2.165463184,0
25.17841487,0.7648038206,-2.162434688,-0.01879645944,2.293774612,0
25.18844487,0.7451817343,-2.266429465,-0.2391774327,2.397749816,0
25.19847387,0.7544215044,-2.269295039,-0.5203934222,2.447378413,0
25.20850387,0.812425299,-2.175247107,-0.7635416991,2.44432624,0
25.21853387,0.9250417954,-1.987961813,-1.057456087,2.434318769,0
25.22856387,1.16605233,-1.744829908,-1.383261774,2.513468237,0
25.23859287,1.369382238,-1.52892761,-1.600940164,2.603043749,0
25.24862287,1.568797435,-1.286763566,-1.61877651,2.595635424,0
25.25865287,1.753152543,-1.045833138,-1.685614278,2.647377247,0
25.26868287,1.817045653,-0.8279343076,-1.677207736,2.607710857,0
25.27871187,1.777142645,-0.6767150782,-1.397773978,2.360074442,0
25.28874187,1.747212356,-0.5861383456,-0.96469118,2.080129383,0
25.29877187,1.634907955,-0.5166776629,-0.657834565,1.836471112,0
25.30880175,1.434028469,-0.4553631748,-0.5937385565,1.617503863,0
25.31883075,1.373207925,-0.4006991637,-0.6999947441,1.592561605,0
25.32886075,1.414981164,-0.2084025134,-0.649764238,1.570922299,0
25.33889075,1.371026036,-0.1629344183,-0.4586731374,1.454868057,0
25.34892075,1.287288792,-0.2059018055,-0.1306952101,1.310186714,0
25.35894975,1.21651921,-0.1897662677,0.136846481,1.238812812,0
25.36897975,1.176755512,-0.2546082348,0.3718337989,1.260094942,0
25.37900975,1.034361485,-0.3093717948,0.5000445271,1.189814741,0
25.38903975,0.9760341936,-0.3984570488,0.429410162,1.138333806,0
25.39906975,0.9885770559,-0.5225558688,0.2722492844,1.150855727,0
25.40909875,1.060161301,-0.5281708038,0.06861824512,1.186429453,0
25.41912875,1.09668301,-0.5186722943,-0.0256254226,1.213421294,0
25.42915875,1.089822911,-0.5234244727,-0.1097241712,1.213971395,0
25.43918775,1.03086105,-0.6155890167,-0.1381854934,1.208602322,0
25.44921775,1.015008225,-0.694314905,-0.106467272,1.23436225,0
25.45924775,1.01967211,-0.773718047,-0.1006130397,1.283936841,0
25.46927775,0.9675460099,-0.8218472099,-0.01198152959,1.269536008,0
25.47930775,0.8188947315,-0.8364998938,0.1531374085,1.180581094,0
25.48933675,0.7509473082,-0.8237817612,0.2682877958,1.146523698,0
25.49936675,0.7045196119,-0.865799122,0.2967502874,1.154996423,0
25.50939675,0.5441383072,-0.9191665131,0.2879315168,1.106281219,0
25.51942575,0.5090399567,-0.8752717575,0.2671049041,1.047171121,0
25.52945575,0.5044907498,-0.7891640519,0.2979858041,0.9828969208,0
25.53948575,0.3670389359,-0.8496868269,0.3309904128,0.9829750443,0
25.54951575,0.1182889534,-0.9296871158,0.2384406835,0.96703897,0
25.55954575,0.04703960739,-0.9559938852,0.1784540981,0.9736441334,0
25.56957475,0.05581620499,-0.995230895,0.1617269683,1.009829488,0
25.57960475,-0.08026787214,-1.052312437,0.1930148345,1.072874235,0
25.58963475,-0.192007944,-1.02002382,0.197585603,1.056577359,0
25.59966475,-0.18764424,-1.004484114,0.02982840121,1.022295666,0
25.60969375,-0.1182709732,-0.9491504502,-0.1706901652,0.9716016327,0
25.61972375,-0.01460630815,-0.8271531196,-0.3167150205,0.885835217,0
25.62975375,0.1117428127,-0.7273614675,-0.4717738241,0.8741348304,0
25.63978375,0.2033110869,-0.6863846187,-0.6103961045,0.9407670526,0
25.64981275,0.2199797811,-0.6285645729,-0.6757726532,0.9487640409,0
25.65984275,0.1860464153,-0.6266689056,-0.6470312494,0.9197698754,0
25.66987275,0.2257934484,-0.6837266207,-0.5307090801,0.8944925382,0
25.67990275,0.2440773628,-0.7447564955,-0.3146480298,0.8445350077,0
25.68993175,0.1359642823,-0.7636180052,-0.1120747519,0.7836832868,0
25.69996175,0.05825146068,-0.6817030455,0.04929670572,0.6859609611,0
25.70999175,-0.06627939541,-0.5666573234,0.1388158232,0.5871654905,0
25.72002075,-0.2461208185,-0.4980222675,0.2436406124,0.6065990309,0
25.73005075,-0.3474830693,-0.3968787391,0.4156943482,0.6716092675,0
25.74008075,-0.3761968816,-0.2098685566,0.4476581526,0.6212622042,0
25.75011075,-0.3758803645,-0.009974911362,0.3258483714,0.4975567389,0
25.76014075,-0.2802943953,0.2161285856,0.08752404749,0.3646052282,0
25.77016975,-0.1692879298,0.432524389,-0.09564992309,0.4742200524,0
25.78019975,-0.1031281465,0.5929547372,-0.2703430921,0.6597849062,0
25.79022975,-0.0647146805,0.70785998,-0.4584784251,0.8458464444,0
25.80025975,-0.07968801107,0.7806377882,-0.5836386609,0.9779466355,0
25.81028875,-0.1506499664,0.8429829942,-0.5672448224,1.027172054,0
25.82031875,-0.2195447117,0.8115278976,-0.4168281233,0.9383619203,0
25.83034875,-0.2727865339,0.7189036162,-0.2182800686,0.7993003759,0
25.84037775,-0.3149702845,0.6600437893,-0.009521021247,0.7314059979,0
25.85040775,-0.2834889119,0.6352343456,0.07527763903,0.6996823279,0
25.86043775,-0.2666616486,0.6643958719,-0.005286467671,0.7159317399,0
25.87046775,-0.1894439034,0.6802684312,-0.1794972414,0.7286105891,0
25.88049675,-0.03532041678,0.7068492888,-0.299283886,0.7684102376,0
25.89052675,0.03146169299,0.736395708,-0.4754663408,0.8771184174,0
25.90055675,0.07437205151,0.7427539703,-0.6161409938,0.9679072201,0
25.91058675,0.12489744,0.7283487698,-0.7016255325,1.019004263,0
25.92061575,0.2281204209,0.746389769,-0.6900690955,1.041792671,0
25.93064575,0.3367443288,0.759884558,-0.680137015,1.073968176,0
25.94067575,0.3870272406,0.7515057904,-0.7619150037,1.138009451,0
25.95070575,0.4176039027,0.7792476127,-0.9261363941,1.280370447,0
25.96073475,0.4641909356,0.8217615482,-1.016546043,1.387130536,0
25.97076475,0.5591487676,0.8748975357,-1.029973589,1.462511072,0
25.98079475,0.6702537587,0.9209858742,-0.9110991096,1.45861464,0
25.99082475,0.7582890721,0.954501822,-0.7180538696,1.41480649,0
26.00085375,0.8583734505,0.9210288513,-0.5637622207,1.379466189,0
26.01088375,0.8230957367,0.8385953897,-0.4127286404,1.245421114,0
26.02091375,0.6751706093,0.6792546701,-0.3171301728,1.008867586,0
26.03094375,0.4769022708,0.4446865976,-0.08212940633,0.6572116747,0
26.04097275,0.2863425359,0.2331816977,0.3589307481,0.5149728478,0
26.05100275,0.1198956221,0.01261156708,0.7193835264,0.7294152932,0
26.06103275,-0.04568860821,-0.1143072188,0.9060161251,0.9143406412,0
26.07106275,-0.2538437844,-0.1234470016,1.232714682,1.26461904,0
26.08109175,-0.4511080098,-0.1144171464,1.461898053,1.534188919,0
26.09112175,-0.5689416844,-0.1448657911,1.415612664,1.532527308,0
26.10115175,-0.6399029088,-0.1383609098,1.131778876,1.307494894,0
26.11118175,-0.686240631,-0.05967858329,0.6621328533,0.9554620099,0
26.12121075,-0.6987105493,0.06239651531,0.1210630918,0.7118609619,0
26.13124075,-0.6763419528,0.1272339508,-0.335685727,0.7657100121,0
26.14127075,-0.6059200609,0.09021844447,-0.5548417085,0.8265154623,0
26.15130075,-0.6135742854,-0.00709413439,-0.4878343713,0.7839043974,0
26.16132975,-0.6607473555,-0.1219501144,-0.2992289221,0.7355248779,0
26.17135975,-0.7351788294,-0.2536285338,-0.05940888047,0.7799645885,0
26.18138975,-0.7929651806,-0.3929723606,0.1658299595,0.9004002606,0
26.19141975,-0.841898628,-0.4841710907,0.3250227445,1.024136089,0
26.20144875,-0.8886547185,-0.5390092027,0.3733388722,1.10436409,0
26.21147875,-0.8146972346,-0.5566452822,0.3874587286,1.060051801,0
26.22150875,-0.7296376424,-0.50583444,0.3368955159,0.9495989461,0
26.23153875,-0.5862560208,-0.4417644516,0.3348413891,0.8068275581,0
26.24156775,-0.4260045243,-0.3475421262,0.3408458948,0.6468703952,0
26.25159775,-0.2521562049,-0.2886852229,0.4057043803,0.5581379343,0
26.26162775,-0.1696383972,-0.2715645754,0.375626303,0.4935783868,0
26.27165775,-0.1410061902,-0.2909808397,0.3317786175,0.4632813894,0
26.28168675,-0.04858699992,-0.3536752707,0.2952089614,0.4632442385,0
26.29171675,-0.04684452966,-0.4455075467,0.3623946387,0.5761955035,0
26.30174675,-0.08308484137,-0.5096023858,0.3531782573,0.625565795,0
26.31177637,-0.1332035194,-0.5510307857,0.2050530821,0.6028473031,0
26.32180537,-0.1973693291,-0.5660470203,0.04615324259,0.6012437135,0
26.33183537,-0.3016395099,-0.5903772846,-0.234955743,0.7033746748,0
26.34186537,-0.5005458527,-0.6542785808,-0.5185088646,0.9733848441,0
26.35189437,-0.678271607,-0.7087459794,-0.6210649341,1.161074885,0
26.36192437,-0.7998464763,-0.757888611,-0.5580980229,1.235161097,0
26.37195437,-0.8333089221,-0.8052349779,-0.1963962793,1.175320649,0
26.38198437,-0.8180003268,-0.8259797296,0.2311164612,1.185234942,0
26.39201337,-0.8184344825,-0.8548149812,0.4819462252,1.277816817,0
26.40204337,-0.8597617988,-0.8965377885,0.5782200462,1.370149181,0
26.41207337,-0.898629703,-0.9143258956,0.5775329983,1.406083764,0
26.42210337,-0.9720509972,-0.8587223831,0.5800543177,1.420827324,0
26.43213237,-1.057163434,-0.7654277185,0.3853291726,1.360864684,0
26.44216237,-1.154824287,-0.6915762153,-0.01867425263,1.346196688,0
26.45219237,-1.258952308,-0.6429890692,-0.3975440061,1.46848122,0
26.46222237,-1.305826951,-0.529940756,-0.5793035352,1.52368429,0
26.47225137,-1.375791663,-0.4195523411,-0.5834234834,1.552162952,0
26.48228137,-1.35919288,-0.4045749906,-0.6505448413,1.560222676,0
26.49231137,-1.393319862,-0.3309681934,-0.6875694108,1.588594308,0
26.50234137,-1.399677539,-0.2589901382,-0.6836558694,1.57910052,0
26.51237037,-1.313077644,-0.1565217769,-0.6848843694,1.489207361,0
26.52240037,-1.263174874,-0.06271314204,-0.7400850087,1.465356449,0
26.53243037,-1.196399891,0.02881390929,-0.7918813992,1.435018847,0
26.54246037,-1.154334802,0.08966237426,-0.7748601544,1.393174948,0
26.55248937,-1.090754007,0.1659334552,-0.6392357415,1.275108053,0
26.56251938,-1.114130078,0.205739399,-0.4810188568,1.230850792,0
26.57254938,-1.126785865,0.2376309903,-0.4165275764,1.224585683,0
26.58257938,-1.134609293,0.2885821657,-0.4325881237,1.248098714,0
26.59260838,-1.156385932,0.3389901347,-0.4583831155,1.289285778,0
26.60263838,-1.226710761,0.3375619523,-0.4024819797,1.334450863,0
26.61266838,-1.271351328,0.3510840771,-0.2668435335,1.345659578,0
26.62269838,-1.337664163,0.3360628724,-0.1380831671,1.386127926,0
26.63272738,-1.406749162,0.297413654,0.02722405136,1.438102651,0
26.64275738,-1.526076508,0.2427171908,0.1749627256,1.555131215,0
26.65278738,-1.62146199,0.1665016584,0.3401699567,1.665105819,0
26.66281738,-1.749300689,0.1309462018,0.4128110862,1.802113427,0
26.67284638,-1.798927763,0.1229195827,0.4788501245,1.86562262,0
26.68287638,-1.702483495,0.1508727819,0.5620770532,1.799206287,0
26.69290637,-1.540937499,0.2174398237,0.555726977,1.652453002,0
26.70293537,-1.350846564,0.2878331374,0.397710067,1.437291777,0
26.71296537,-1.165289634,0.3937953562,0.1688243186,1.241562066,0
26.72299537,-0.9620719197,0.5126413299,0.03865301907,1.090815093,0
26.73302537,-0.8258703136,0.6028058338,-0.02255037189,1.022714607,0
26.74305437,-0.6860435068,0.6689856438,-0.1149293625,0.9650939038,0
26.75308437,-0.6509015945,0.7651654708,-0.2019622439,1.024665717,0
26.76311437,-0.6675448899,0.8628199656,-0.2768773556,1.125493467,0
26.77314437,-0.6672169342,0.9695244884,-0.2948090118,1.213288311,0
26.78317337,-0.6189291655,1.090968526,-0.2358538753,1.276288638,0
26.79320337,-0.538647187,1.207539202,-0.1899678504,1.335806686,0
26.80323337,-0.412149693,1.297618483,-0.07694175661,1.363671929,0
26.81326337,-0.2647871409,1.436430652,0.04148248672,1.461220738,0
26.82329237,-0.1829278028,1.52826936,0.1747533953,1.549066998,0
26.83332237,-0.09632059872,1.568046214,0.345977996,1.60864768,0
26.84335237,-0.07051654369,1.578993225,0.5571917045,1.675904168,0
26.85338237,-0.07015781701,1.608602501,0.6632824159,1.7413982,0
26.86341137,-0.1243328547,1.603021334,0.6477580583,1.73341471,0
26.87344137,-0.1856030501,1.574918738,0.5959990901,1.694117009,0
26.88347137,-0.2223428603,1.542550599,0.5100187075,1.639822484,0
26.89350037,-0.2261970524,1.542169361,0.4928577143,1.634735505,0
26.90353037,-0.2023279873,1.537388823,0.4711008096,1.620628576,0
26.91356037,-0.1876194625,1.564350335,0.3749673218,1.619565845,0
26.92359037,-0.1632279485,1.640905006,0.166708796,1.657408949,0
26.93361937,-0.1159615423,1.70419673,-0.09708833814,1.71089442,0
26.94364937,-0.007268089056,1.692642778,-0.2720352763,1.714379068,0
26.95367938,0.2861368601,1.55389259,-0.2279601341,1.59637787,0
26.96370938,0.5607403797,1.356966406,0.2371045947,1.487281476,0
26.97373838,0.6933910449,1.130465299,1.175280406,1.772012123,0
26.98376838,0.5758093853,0.759018293,2.221536736,2.417207208,0
26.99379838,0.3054513828,0.2727375269,2.862414376,2.891557083,0
27.00382838,0.005202852488,-0.2476379152,3.143613993,3.153357028,0
27.01385738,-0.4361689585,-0.6557510559,3.114708867,3.212734682,0
27.02388738,-0.9505493966,-0.9357598878,2.836870229,3.134808355,0
27.03391738,-1.343856072,-1.032054466,2.432659228,2.96461068,0
27.04394638,-1.412169677,-0.9476855765,1.959682047,2.594741774,0
27.05397638,-1.223600042,-0.7844038336,1.479089452,2.073690441,0
27.06400638,-0.8788520077,-0.6481850512,1.050575083,1.515332544,0
27.07403638,-0.4862953842,-0.5606982797,0.8656153733,1.140243718,0
27.08406538,-0.06763006568,-0.4620137979,0.8656019247,0.9835127184,0
27.09409538,0.1687363181,-0.4105632703,0.595249477,0.7425335574,0
27.10412537,0.2732289854,-0.4214104401,0.1165338385,0.5155782898,0
27.11415537,0.217922219,-0.462154862,-0.2661132163,0.5761019475,0
27.12418437,0.1056492466,-0.4758114727,-0.4829320657,0.6861353372,0
27.13421437,0.04428724989,-0.5607127516,-0.7290478045,0.9207990288,0
27.14424437,0.02060266435,-0.7171762025,-1.109626699,1.321377155,0
27.15427437,-0.01834651619,-0.8388386339,-1.577244907,1.786529693,0
27.16430337,0.04570651531,-0.9452098654,-1.982296738,2.196590798,0
27.17433337,0.137755723,-1.049430783,-2.145431131,2.392311925,0
27.18436337,0.2804788019,-1.130015648,-2.000007954,2.314224609,0
27.19439337,0.491109543,-1.260033458,-1.57399327,2.075169322,0
27.20442237,0.8225501914,-1.366272835,-1.041263977,1.904605194,0
27.21445237,1.065992437,-1.426913431,-0.3893152195,1.82318078,0
27.22448237,1.174498633,-1.434561151,0.2429091257,1.869871006,0
27.23451137,1.200545494,-1.440951426,0.8328867531,2.052157606,0
27.24454137,1.078164001,-1.439731113,1.362324648,2.256366933,0
27.25457137,0.8109819138,-1.360436144,1.703099792,2.325731512,0
27.26460137,0.4166031517,-1.269587077,1.751669104,2.203123733,0
27.27463037,0.05957055598,-1.108567184,1.439586248,1.817932457,0
27.28466037,-0.1902262974,-0.8357597825,0.8893223244,1.235141553,0
27.29469037,-0.3612392288,-0.5836555447,0.278302322,0.740675204,0
27.30472037,-0.4126007326,-0.293519116,-0.2184484684,0.5514640237,0
27.31475017,-0.3513018858,0.01532533295,-0.6452110112,0.7348095874,0
27.32478017,-0.3238734743,0.2632056152,-1.093556796,1.170486091,0
27.33481017,-0.2247897738,0.4965144168,-1.552965513,1.645830761,0
27.34484017,-0.1234642509,0.681915738,-1.887760125,2.01094276,0
27.35486917,0.03295636922,0.8162043545,-2.057538124,2.213761235,0
27.36489917,0.2038834928,0.9251730654,-2.01627023,2.227747589,0
27.37492917,0.342532378,1.0115265,-1.845299984,2.132052138,0
27.38495817,0.3755839106,1.038958566,-1.580010055,1.927934115,0
27.39498817,0.323321351,1.012294898,-1.393151169,1.752183734,0
27.40501817,0.2317356813,0.9554761143,-1.163855531,1.523547088,0
27.41504817,0.1082509652,0.8843692211,-0.8930996257,1.26152849,0
27.42507717,-0.09141390771,0.7827922679,-0.6197487259,1.002600978,0
27.43510717,-0.1943889302,0.6716003725,-0.3309161532,0.7735241541,0
27.44513717,-0.3300400941,0.5620623621,-0.07287326396,0.655859036,0
27.45516717,-0.4454386957,0.4519742748,0.09409222484,0.6415214131,0
27.46519617,-0.4697726145,0.3282176632,0.1469504696,0.5916143882,0
27.47522617,-0.5030048262,0.2560078389,0.2150196612,0.6039762606,0
27.48525617,-0.4714348318,0.2105556775,0.2681316751,0.5817895574,0
27.49528617,-0.4490781489,0.1518958984,0.371760124,0.6024526019,0
27.50531517,-0.3896930958,0.1339670927,0.5188123351,0.6625512282,0
27.51534517,-0.3071881521,0.1319637635,0.5949664718,0.6824691189,0
27.52537517,-0.2397723868,0.1204297652,0.5727681023,0.6325009287,0
27.53540417,-0.1482017738,0.1944699141,0.5204343528,0.575008025,0
27.54543417,-0.1207809636,0.2796982717,0.4890926921,0.5762211605,0
27.55546417,-0.1104939571,0.4281788114,0.3709298193,0.57717843,0
27.56549417,-0.08199302003,0.5609502947,0.1507523292,0.5866126092,0
27.57552317,-0.002889401615,0.7232763103,-0.06991983533,0.7266538055,0
27.58555317,0.05010230586,0.8894276474,-0.2562220663,0.9269528188,0
27.59558317,0.1424742799,1.038810705,-0.4188079906,1.129082253,0
27.60561317,0.2507136968,1.156710965,-0.5596112823,1.309199145,0
27.61564217,0.3699540652,1.241463724,-0.6246077621,1.438135267,0
27.62567217,0.419338333,1.295088393,-0.6477282375,1.507531244,0
27.63570217,0.4165171976,1.324810082,-0.7081328988,1.558865143,0
27.64573217,0.3613085184,1.277946111,-0.7356826401,1.518195987,0
27.65576117,0.3320383801,1.223697471,-0.724353075,1.460264484,0
27.66579117,0.2850331981,1.194898326,-0.7154694003,1.421591501,0
27.67582117,0.2170943995,1.168790581,-0.7819417173,1.42289643,0
27.68585017,0.1970771876,1.128315277,-0.7934613168,1.393382806,0
27.69588017,0.1507625619,1.082878173,-0.737734428,1.318941459,0
27.70591017,0.2034453902,1.07660908,-0.6758457434,1.287340129,0
27.71594017,0.3959089784,1.10431348,-0.5448330295,1.293481818,0
27.72596917,0.5545019853,1.113511589,-0.3567713714,1.294088993,0
27.73599917,0.7064886618,1.074111734,-0.1568901515,1.295166695,0
27.74602917,0.9056762557,1.033526649,0.004521651864,1.374207866,0
27.75605917,1.156259852,1.004711424,0.1018374467,1.535171898,0
27.76608817,1.412478848,0.9088502705,0.2065242416,1.692264038,0
27.77611817,1.565539512,0.6473206866,0.5512380695,1.781516614,0
27.78614817,1.540160404,0.2775598718,1.152594379,1.94360679,0
27.79617717,1.328420007,-0.1017085156,1.801235951,2.240423016,0
27.80620717,0.9468345143,-0.4384508345,2.355328047,2.576102665,0
27.81623717,0.555252914,-0.7441954552,2.741696854,2.894656165,0
27.82626717,0.2066408935,-1.046425168,2.674182563,2.879055136,0
27.83629617,-0.1417821157,-1.235553651,2.089325343,2.431455404,0
27.84632617,-0.3927200532,-1.267899132,1.224834974,1.806105745,0
27.85635617,-0.4415698124,-1.224432685,0.6242984444,1.443595459,0
27.86638617,-0.3145324011,-1.217858368,0.5004129016,1.353707025,0
27.87641517,-0.1583839689,-1.25041435,0.7517309082,1.467556093,0
27.88644517,-0.03822368726,-1.33657088,1.128124951,1.749442388,0
27.89647517,0.01134242892,-1.478993265,1.452210386,2.072791532,0
27.90650517,-0.06192113668,-1.530140907,1.732919422,2.312612191,0
27.91653417,-0.3020139509,-1.581348044,1.731505566,2.364315036,0
27.92656417,-0.6403502208,-1.642610785,1.395045083,2.248192469,0
27.93659417,-0.9810696696,-1.621436409,0.6381358802,1.999692758,0
27.94662317,-1.223131972,-1.548382904,-0.2275058055,1.98627801,0
27.95665317,-1.372680798,-1.441168504,-0.9098787957,2.188400936,0
27.96668317,-1.465712338,-1.316694878,-1.344874803,2.385515939,0
27.97671317,-1.587215141,-1.243188214,-1.747370816,2.667971815,0
27.98674217,-1.67610729,-1.24893515,-2.021188323,2.907641123,0
27.99677217,-1.832662835,-1.263853005,-2.022249008,3.007568542,0
28.00680217,-1.927539318,-1.39169916,-1.655595843,2.897107517,0
28.01683217,-1.775897188,-1.491501337,-0.9748109561,2.515679523,0
28.02686117,-1.496811924,-1.4431339,-0.1955449247,2.088377171,0
28.03689117,-1.26729073,-1.354110772,0.2916509306,1.877418984,0
28.04692117,-1.096454092,-1.277043885,0.4032725233,1.730803683,0
28.05695017,-0.9285089019,-1.147725402,0.3828446907,1.525113909,0
28.06698017,-0.7794103114,-0.9765703833,0.2963579392,1.284133239,0
28.07701017,-0.7384895959,-0.8273295593,0.1973370963,1.126402687,0
28.08704017,-0.7869900571,-0.6733736868,-0.002516056895,1.035756633,0
28.09706917,-0.918613805,-0.5737407866,-0.2256586701,1.106323483,0
28.10709917,-1.137204946,-0.5293750378,-0.3738247758,1.308899531,0
28.11712917,-1.283472607,-0.5139782958,-0.4041338181,1.440416524,0
28.12715917,-1.354914618,-0.5079847535,-0.3230715287,1.482638643,0
28.13718817,-1.400110525,-0.4887956536,-0.2370800364,1.501811446,0
28.14721817,-1.380197979,-0.4568985075,-0.1314442384,1.459787757,0
28.15724817,-1.345357637,-0.4517748848,-0.007791999578,1.419206973,0
28.16727717,-1.303641407,-0.4444760978,0.07273410022,1.379249858,0
28.17730717,-1.203016673,-0.3672769175,0.1907554704,1.272214251,0
28.18733717,-1.137419392,-0.2532467106,0.2577815187,1.193443791,0
28.19736717,-1.104994096,-0.1657682714,0.2659775609,1.148579617,0
28.20739617,-1.017233383,-0.06614458054,0.2348867458,1.046093038,0
28.21742617,-0.9750074226,0.0257625398,0.2386658013,1.004123771,0
28.22745617,-0.938484398,0.1639858939,0.3308272755,1.008509308,0
28.23748617,-0.9003478342,0.288776878,0.4100506157,1.030611379,0
28.24751517,-0.9203369795,0.4300387377,0.5696953905,1.164691508,0
28.25754517,-0.9389529061,0.5253392896,0.6848481166,1.275394399,0
28.26757517,-0.95874807,0.5346412595,0.8214168549,1.371045144,0
28.27760417,-0.9543668975,0.5525718194,0.9257341057,1.43983868,0
28.28763417,-0.9861900763,0.6316953184,0.9319368321,1.496701741,0
28.29766417,-0.986749801,0.6680401491,0.7721616644,1.419924803,0
28.30769417,-0.9896014881,0.7159006324,0.493120839,1.317191323,0
28.31772242,-1.014085096,0.7854064849,0.2443919796,1.305740927,0
28.32775242,-1.023001807,0.8581471632,0.1240568662,1.341021759,0
28.33778242,-0.9972993475,0.9620651224,0.05670161963,1.386863498,0
28.34781142,-1.036045483,1.066950576,0.07560274422,1.489123753,0
28.35784142,-1.082570317,1.136774664,0.207420035,1.583426095,0
28.36787142,-1.16284981,1.187064811,0.3176476514,1.691816355,0
28.37790142,-1.238444514,1.224910037,0.3448798889,1.775694668,0
28.38793042,-1.317005365,1.24649116,0.3244415313,1.842147022,0
28.39796042,-1.324050529,1.313088754,0.328556217,1.893478562,0
28.40799042,-1.30039401,1.411797648,0.3448974305,1.950167023,0
28.41802042,-1.346550615,1.479082874,0.2026685876,2.01046245,0
28.42804942,-1.432167301,1.47323405,-0.02992780387,2.054852164,0
28.43807942,-1.479894467,1.456892252,-0.09868521273,2.079028966,0
28.44810942,-1.584366523,1.383000403,-0.02978454709,2.103281844,0
28.45813842,-1.687826719,1.21734776,0.1194860977,2.084459529,0
28.46816842,-1.80458319,1.022150891,0.2761382675,2.092263195,0
28.47819842,-1.916000715,0.8365808778,0.342559129,2.118554474,0
28.48822842,-1.99690396,0.7052915905,0.403407594,2.155875539,0
28.49825742,-2.074922189,0.6321190953,0.4985295135,2.225625376,0
28.50828742,-2.071397926,0.6061749995,0.5514052999,2.227596306,0
28.51831742,-2.022431149,0.6592807277,0.5110197508,2.187697424,0
28.52834742,-2.016496956,0.6943676761,0.3801204729,2.16630977,0
28.53837642,-1.946754145,0.6620771585,0.4160545367,2.097927369,0
28.54840642,-1.901625189,0.5108096896,0.769995271,2.114236887,0
28.55843642,-1.878222585,0.3332569398,1.34525838,2.3342023,0
28.56846542,-1.967755297,0.1667611286,1.972109134,2.790893158,0
28.57849542,-2.128002335,0.01884762257,2.460318312,3.252985608,0
28.58852542,-2.216057164,-0.1861097114,2.729629955,3.520855844,0
28.59855542,-2.334211412,-0.4024252617,2.618618812,3.530956455,0
28.60858442,-2.43749853,-0.5957217859,2.090059753,3.265675014,0
28.61861442,-2.551879277,-0.740333223,1.286146538,2.952008476,0
28.62864442,-2.564177726,-0.8440327156,0.632846489,2.772705053,0
28.63867342,-2.457979133,-0.9751207124,0.3272294837,2.664507639,0
28.64870342,-2.170652219,-1.140469592,0.2358673239,2.463338251,0
28.65873342,-1.78021258,-1.303780425,0.2189840734,2.21742063,0
28.66876342,-1.371073253,-1.464837887,0.3600785565,2.038442657,0
28.67879242,-0.9593766457,-1.546076763,0.553465274,1.901862433,0
28.68882242,-0.5804514898,-1.535209712,0.7406071651,1.800636489,0
28.69885242,-0.2317099535,-1.501856463,0.8912881583,1.761719876,0
28.70888242,0.08617714137,-1.455869866,1.113544918,1.834929386,0
28.71891142,0.3697412266,-1.433381621,1.369694479,2.016768309,0
28.72894142,0.5755494766,-1.385844927,1.624014446,2.211164011,0
28.73897142,0.6296634109,-1.394812656,1.76885641,2.338980837,0
28.74900042,0.3780483659,-1.459611061,1.661536029,2.243677114,0
28.75903042,-0.05029555634,-1.628714584,1.284741452,2.075042515,0
28.76906042,-0.4598187532,-1.819582175,0.878241266,2.072105282,0
28.77909042,-0.7326575831,-1.98809703,0.5686048847,2.193770373,0
28.78911942,-0.8919496246,-2.136207879,0.2875175339,2.332728996,0
28.79914942,-0.9864004299,-2.201980285,-0.03425006568,2.413063623,0
28.80917942,-1.074513292,-2.283423374,-0.4015698141,2.555358964,0
28.81920942,-1.081654643,-2.354550952,-0.8222196776,2.718442964,0
28.82923842,-1.006439861,-2.368669492,-1.269127048,2.869529547,0
28.83926842,-0.9765461174,-2.35351731,-1.764102039,3.099151828,0
28.84929842,-0.9060132015,-2.33093434,-2.17151673,3.312038606,0
28.85932742,-0.8372594471,-2.270063656,-2.5128649,3.488363856,0
28.86935742,-0.8171865405,-2.239450558,-2.543117809,3.48573964,0
28.87938742,-0.643484036,-2.210284646,-2.216190627,3.195454712,0
28.88941742,-0.3222752841,-2.209375112,-1.573546543,2.731528595,0
28.89944642,0.07386831388,-2.211018911,-0.7196934289,2.326374816,0
28.90947642,0.3360887463,-2.186916541,0.1598541051,2.218358163,0
28.91950642,0.526029992,-2.131494877,1.156879218,2.481601799,0
28.92953542,0.6487993012,-2.08511374,2.174991145,3.082081492,0
28.93956542,0.6449009626,-2.096630269,2.995292936,3.712618417,0
28.94959542,0.5667372841,-2.133299913,3.269791644,3.945085178,0
28.95962542,0.3982363164,-2.169793701,2.979091471,3.706964103,0
28.96965442,0.1662867732,-2.109015549,2.033030689,2.934077651,0
28.97968442,0.04258454069,-1.865309886,0.8801872194,2.062989083,0
28.98971442,0.1100782201,-1.583044176,0.001595705152,1.58686755,0
28.99974342,0.2707022573,-1.34338274,-0.6170174915,1.502886384,0
29.00977342,0.4274918367,-1.122662628,-1.053351926,1.597708023,0
29.01980342,0.6016314206,-0.8948619765,-1.410795727,1.775692233,0
29.02983342,0.7393485519,-0.6797005203,-1.657162312,1.937734761,0
29.03986242,0.8077549817,-0.4854849601,-1.836178912,2.063908126,0
29.04989242,0.8669868377,-0.2927431905,-1.913951558,2.121455943,0
29.05992242,0.9303588147,-0.1007821704,-1.999747753,2.207875822,0
29.06995242,0.9992055398,0.05944703355,-2.124795138,2.348765641,0
29.07998142,1.06588324,0.1777888311,-2.111334262,2.371802757,0
29.09001142,1.161536672,0.2956774695,-2.033252299,2.360234632,0
29.10004142,1.247198527,0.4026196817,-1.858265015,2.273929559,0
29.11007042,1.319484292,0.4519714974,-1.536238384,2.074932626,0
29.12010042,1.349014485,0.4914502895,-1.1777912,1.857028697,0
29.13013042,1.357406117,0.539605034,-0.8704153526,1.700396379,0
29.14016042,1.45390988,0.6176542532,-0.6551723278,1.710146629,0
29.15018942,1.616219669,0.7031092635,-0.4813650119,1.827085365,0
29.16021942,1.751579788,0.7973159476,-0.3266400844,1.952034379,0
29.17024942,1.911161705,0.8979924296,-0.2415093023,2.125383779,0
29.18027842,2.099095455,0.9986477154,-0.2268836617,2.335588831,0
29.19030842,2.195392811,1.109612081,-0.2732234305,2.475002952,0
29.20033842,2.233715901,1.162986927,-0.3775558841,2.546482626,0
29.21036842,2.238413262,1.16983504,-0.4681356865,2.568688182,0
29.22039742,2.225152216,1.15522431,-0.4777473396,2.552271167,0
29.23042742,2.154592402,1.130719506,-0.4365724164,2.47212267,0
29.24045742,2.032287508,1.059030742,-0.3812840688,2.323169423,0
29.25048642,1.928702914,0.947596845,-0.3639728022,2.179520798,0
29.26051642,1.830176745,0.8430639781,-0.3118004358,2.039000564,0
29.27054642,1.74209999,0.7657912691,-0.192665171,1.912712344,0
29.28057642,1.673185437,0.7087041718,-0.1076115721,1.820272331,0
29.29060542,1.663307151,0.6809057777,0.001495133042,1.797282835,0
29.30063542,1.668706616,0.6419894877,0.09636796117,1.790535969,0
29.31066542,1.679593108,0.5999224256,0.2169036341,1.796659988,0
29.32069513,1.666357497,0.5878917794,0.3791843337,1.807247855,0
29.33072413,1.702805531,0.5537883326,0.5347869283,1.868749649,0
29.34075413,1.72391091,0.550101517,0.6534368742,1.923917943,0
29.35078413,1.680508636,0.574171434,0.6917723894,1.905867558,0
29.36081313,1.539996097,0.6229085612,0.6484386742,1.783276694,0
29.37084312,1.435328305,0.6918086421,0.4905375391,1.667151349,0
29.38087312,1.469655993,0.7694886097,0.2073013365,1.671817963,0
29.39090312,1.568262999,0.8622424069,0.02813446283,1.789888921,0
29.40093212,1.747355321,0.9658541912,-0.01943146706,1.996622778,0
29.41096212,1.927417549,1.041083445,0.09993593216,2.192893143,0
29.42099212,2.016641236,1.074304108,0.3966037738,2.319108826,0
29.43102112,1.916684108,0.9684309129,0.7820931602,2.285433463,0
29.44105112,1.650047566,0.7328967342,1.012260618,2.069895203,0
29.45108112,1.242328674,0.4435012208,1.060366831,1.692469108,0
29.46111112,0.7622442019,0.1901258714,0.921033529,1.210564675,0
29.47114012,0.2862570204,-0.001107170284,0.6459974617,0.7065812254,0
29.48117012,-0.02153997302,-0.159982013,0.2387511706,0.2882019021,0
29.49120012,-0.3005818217,-0.2862875721,-0.1942936206,0.4583230481,0
29.50122912,-0.6027235343,-0.4225437766,-0.555726977,0.9223076357,0
29.51125912,-0.853370719,-0.5629574977,-0.9279431838,1.380666969,0
29.52128912,-1.050143267,-0.7061827062,-1.271680527,1.794064173,0
29.53131912,-1.136670949,-0.7551111835,-1.514824126,2.038849155,0
29.54134812,-1.101907205,-0.7828953981,-1.613185403,2.104635797,0
29.55137812,-0.8755224569,-0.8245921853,-1.289591718,1.763388398,0
29.56140812,-0.4511651663,-0.857934617,-0.4742454422,1.079124902,0
29.57143712,-0.04999676362,-0.870726863,0.5317259109,1.021468252,0
29.58146712,0.1116195461,-0.9015953377,1.476785649,1.733848012,0
29.59149712,0.1542216285,-0.9895640659,2.205904205,2.422609071,0
29.60152712,-0.004984166622,-1.150403719,2.534506615,2.78337517,0
29.61155612,-0.4613156404,-1.336096817,2.148828948,2.572048342,0
29.62158612,-1.028709713,-1.452528475,1.058365329,2.070801732,0
29.63161612,-1.384322312,-1.423023717,-0.05545674741,1.986056448,0
29.64164512,-1.544251847,-1.333324359,-0.6616972357,2.144833524,0
29.65167513,-1.601322133,-1.288657771,-0.8989585358,2.243434393,0
29.66170513,-1.551817559,-1.331915765,-0.9471939719,2.253733294,0
29.67173513,-1.30499153,-1.344805952,-0.7482459676,2.017765588,0
29.68176413,-0.9350219692,-1.303899416,-0.3154648858,1.635217987,0
29.69179413,-0.5370663191,-1.248771136,0.2049536794,1.374727461,0
29.70182413,-0.2920584816,-1.253384297,0.5551393318,1.401588395,0
29.71185313,-0.1287792237,-1.165687902,0.7847939891,1.411139249,0
29.72188313,-0.01359185278,-1.066723047,0.8735886365,1.378854562,0
29.73191313,-0.03833741561,-0.9468869931,0.841150623,1.267122372,0
29.74194313,-0.2343727756,-0.7951280656,0.5189561766,0.977995272,0
29.75197213,-0.5183435346,-0.7088896747,-0.1092944008,0.8849575452,0
29.76200213,-0.7902165507,-0.6166150568,-0.6907076114,1.217264692,0
29.77203213,-0.9208037335,-0.4772909644,-1.039107524,1.46813849,0
29.78206113,-0.932102893,-0.339608624,-1.21535079,1.568829935,0
29.79209112,-0.8948285012,-0.1715637392,-1.429137273,1.694870352,0
29.80212112,-0.8723646681,0.008982200325,-1.680276355,1.893258943,0
29.81215112,-0.7445511121,0.160633539,-1.744473521,1.903509221,0
29.82218012,-0.4919641136,0.2979445812,-1.62204218,1.720994043,0
29.83221012,-0.2175681701,0.4245036171,-1.466844798,1.542456771,0
29.84224012,0.09665520564,0.584319423,-1.204973152,1.34265845,0
29.85227012,0.4491813523,0.7821123098,-0.8910794127,1.267866741,0
29.86229912,0.7117404847,0.9185601568,-0.6191610807,1.31669576,0
29.87232912,0.8505177163,0.9765181969,-0.3962810075,1.354255076,0
29.88235912,0.7810058704,0.9882442032,-0.291448617,1.292880146,0
29.89238812,0.5643586367,0.9169336076,-0.2505175227,1.105453274,0
29.90241812,0.2713805343,0.8553155029,-0.1408541626,0.9083236752,0
29.91244812,0.02472290486,0.8172527602,0.1025122154,0.8240279427,0
29.92247712,-0.1228707585,0.8240761685,0.3265131998,0.8948796704,0
29.93250712,-0.2184212789,0.8412118725,0.5237169796,1.014704264,0
29.94253712,-0.3037586139,0.8742938107,0.700530349,1.160776349,0
29.95256712,-0.375303829,0.9182404603,0.8426995504,1.301599416,0
29.96259612,-0.4041512136,0.9987905337,0.9020061046,1.405181749,0
29.97262612,-0.4190516733,1.065164617,0.818308475,1.407056761,0
29.98265612,-0.4613479462,1.128146147,0.5468918341,1.335906559,0
29.99268612,-0.5021001157,1.194667873,0.1849965477,1.309030013,0
30.00271512,-0.5145339274,1.275812608,-0.1110479808,1.380135728,0
30.01274512,-0.5505219318,1.322440644,-0.2471454334,1.453617735,0
30.02277512,-0.6095934279,1.355969895,-0.2488925815,1.507383833,0
30.03280412,-0.711759342,1.314687821,-0.2037538308,1.508814452,0
30.04283412,-0.8428619568,1.237081675,-0.2083672839,1.51135842,0
30.05286412,-0.9549427021,1.162637118,-0.2146086019,1.519768892,0
30.06289312,-1.022805195,1.096673216,-0.1577929616,1.507886344,0
30.07292313,-1.034934074,0.9928311977,-0.08085646749,1.436433115,0
30.08295313,-1.069591544,0.9168855143,-0.003827002645,1.408800825,0
30.09298313,-1.094211246,0.8191918431,-0.01322289348,1.366948562,0
60.19188962,0.5526235673,4.149356135,1.108908076,4.330384078,0
60.20191863,-0.08610112756,2.797295104,0.427837261,2.8311337,0
60.21194862,-0.426971873,2.463912596,0.7211078703,2.602530849,0
60.22197762,-0.206571604,1.973424758,1.106154038,2.271707256,0
60.23200762,0.03693423003,0.3920540553,0.2260615432,0.4540642476,0
60.24203762,0.01620438874,-1.157164562,-0.2051027834,1.175312536,0
60.25206662,1.151611169,-0.617304005,-0.3609942305,1.35557713,0
60.26209662,2.641071828,-0.0611747396,-0.3316359454,2.662514817,0
60.27212562,2.560344584,-0.8918108994,-0.8792727149,2.850230092,0
60.28215562,1.626418529,-1.949084553,-0.3018520013,2.556419851,0
60.29218462,1.232129083,-2.845198418,0.4406765771,3.13169155,0
60.30221462,0.5938312349,-3.246835476,0.4623586375,3.332919389,0
60.31224362,0.1165370545,-2.589416063,0.111738537,2.594444436,0
60.32227362,0.4586433166,-0.8095452529,0.2700402429,0.9688338047,0
60.33230362,0.7994886267,1.395903454,0.3712134093,1.650917294,0
60.34233238,0.8858669123,2.084652833,-0.07417193055,2.266283101,0
60.35236238,0.633489975,1.813268936,-0.142747491,1.926040142,0
60.36239138,0.6126040131,1.760034131,0.04218999982,1.864077202,0
60.37242138,0.8475612178,1.785432097,-0.06285113633,1.97739173,0
60.38245038,1.18950405,1.652520207,-0.3487373336,2.065759097,0
60.39248038,1.106672101,1.08436088,-0.9436657619,1.814129744,0
60.40251038,1.16609443,0.2645134181,-1.261356098,1.738034169,0
60.41253938,1.482859152,-0.0880935663,-1.264841623,1.951014114,0
60.42256938,1.802726991,0.2700285119,-1.246115915,2.208063603,0
60.43259838,1.62963362,1.494775777,-1.243429704,2.536962316,0
60.44262838,1.471476085,2.351922044,-1.495535331,3.151730492,0
60.45265738,1.391634109,2.584577492,-1.702972907,3.393641559,0
60.46268738,1.414159338,2.802947608,-1.593203859,3.520605127,0
60.47271638,1.467805057,2.947388452,-1.199850991,3.504453277,0
60.48274638,1.267153028,2.840145255,-0.5110578308,3.151710959,0
60.49277638,0.8381384298,2.745685825,0.1314951092,2.873770631,0
60.50280538,0.3142893031,2.422894378,0.193818242,2.450869324,0
60.51283538,0.1854228097,1.266037964,0.1287505724,1.28600562,0
60.52286438,-0.1024544741,0.3207788354,0.9858159276,1.041743262,0
60.53289438,-0.003236433864,-0.6293761665,0.8720648521,1.075463593,0
60.54292338,0.708384256,-1.582189897,0.1062446393,1.736784687,0
60.55295338,1.256094043,-2.673481482,-0.03297610357,2.954041791,0
60.56298238,1.927483331,-3.530166988,0.5775924937,4.063358714,0
60.57301238,2.18997025,-3.570705149,1.489899638,4.445863908,0
60.58304237,1.3007637,0.4431709993,1.91626764,2.358064547,0
60.59307137,1.123542999,0.645635519,1.127735526,1.717842109,0
60.60310137,0.2448633748,1.321890568,1.933823759,2.355212745,0
60.61313037,-0.3048059599,2.992678061,0.591486209,3.065760034,0
60.62316037,-0.2704894552,2.667999133,-0.5660701168,2.740769836,0
60.63318937,0.2307068454,2.509068888,-1.230335888,2.803993354,0
60.64321937,0.4675861944,1.737146959,-0.3929925334,1.841401515,0
60.65324837,0.5860536341,0.4662581456,2.287037246,2.406531712,0
60.66327837,0.5975948683,-0.02987868726,-0.1384164584,0.6141428812,0
60.67330837,0.9621713955,0.3709228027,-2.762974872,2.949133375,0
60.68333737,0.8854196003,0.6006850487,-1.774829341,2.072392237,0
60.69336737,-0.1270949332,1.041078036,-1.24922371,1.631121233,0
60.70339637,0.280943619,-0.6114755005,0.6885434838,0.9627687852,0
60.71342637,0.5917572275,0.1315658605,-1.845484756,1.942498436,0
60.72345537,0.805760204,-0.6531749189,-2.705707827,2.897713206,0
60.73348537,0.7894197214,-0.1425603801,-2.824231473,2.935947951,0
60.74351537,0.9759045316,1.630983742,-4.340191128,4.738117416,0
60.75354437,1.589919185,2.951503138,-4.46919006,5.58684827,0
60.76357437,2.077977651,0.9933682644,-3.295548629,4.020623384,0
60.77360337,-3.62385517,-31.86722707,-6.360905242,32.69730269,0
60.78363337,-2.28104385,-45.92022403,-5.141031631,46.26338014,0
60.79366237,1.002477934,-13.04902067,1.705386638,13.19811525,0
60.80369237,1.048700174,0.1183248407,0.8434362996,1.350983943,0
60.81372137,1.476929491,1.724553811,-1.976874615,3.010554735,0
60.82375137,-0.5697281349,2.313300015,-2.568270192,3.503135579,0
60.83378137,-2.954064803,2.651117052,-1.966900434,4.42985528,0
60.84381037,-2.942233255,3.371478817,-1.596869917,4.751168222,0
60.85384037,-3.134016373,2.590264494,-1.3590907,4.287033509,0
60.86386937,-3.578963172,1.165937725,-0.5076705388,3.798172921,0
60.87389937,-2.653396297,0.2458455974,0.5837227146,2.727945046,0
60.88392837,-1.813125095,-0.2496872181,1.665298566,2.474466737,0
60.89395837,-1.854290224,-0.3457441074,2.519426061,3.147290724,0
60.90398737,-1.743075744,-0.2311474514,2.380914731,2.959813702,0
60.91401737,-1.19373992,-0.09527102351,1.684613527,2.066885169,0
60.92404737,-0.5813680409,0.0911411351,0.8830079162,1.061130758,0
60.93407637,0.7962057075,0.09860802948,0.003840451241,0.8022978382,0
60.94410637,0.9279287119,-0.679739989,-1.226445589,1.681447867,0
60.95413537,0.738891592,-0.9118177325,-1.15251895,1.64489279,0
60.96416537,0.1383372286,-0.3640879923,-0.1675627819,0.4239982793,0
60.97419437,-0.06838114053,-0.5498610502,0.6535634664,0.8568362501,0
60.98422437,0.06081820562,-0.2982015663,1.296308999,1.3315555,0
60.99425337,-0.1747471827,0.1778880876,2.314521206,2.327915196,0
61.00428337,-0.5839772878,0.2994990635,2.830691476,2.905777589,0
61.01431337,-0.7217306719,0.4445813477,3.205546532,3.315731639,0
61.02434237,-0.6678647326,0.5002597046,3.1374674,3.246537349,0
61.03437237,-0.5023992739,0.5061244619,1.067432021,1.283736002,0
61.04440137,0.2534535193,0.3917505848,0.03629512936,0.4680005808,0
61.05443137,-0.04037754569,0.53452088,-0.3653837353,0.6487281336,0
61.06446037,-0.8081043528,0.8651411641,-0.7644190738,1.409197786,0
61.07449038,-1.817700541,1.595524473,-0.3526479149,2.444196013,0
61.08451937,-1.912507149,2.156647845,0.9234484291,3.026808637,0
61.09454938,-1.324330026,2.795819852,2.24275365,3.821047317,0
61.10457938,-1.738465653,3.38130097,2.824111605,4.736144575,0
61.11460838,-2.400887505,4.106280867,2.797689791,5.518412048,0
61.12463838,-2.470054218,4.659229832,2.769874294,5.95665964,0
61.13466738,-2.573055553,4.956146765,2.7546575,6.22672816,0
61.14469738,-2.522920065,5.028928812,2.595610895,6.196163859,0
61.15472638,-2.171037404,4.837458812,1.957422098,5.652071517,0
61.16475638,-1.463589507,4.522908431,1.450381085,4.970150924,0
61.17478638,-0.5944986214,4.204553851,1.269034369,4.431946517,0
61.18481538,0.1131614569,3.902946866,1.306977536,4.117522318,0
61.19484538,0.2403215135,3.769948438,1.344572794,4.00975581,0
61.20487438,-0.08864324111,3.784168282,1.271507157,3.993058684,0
61.21490438,-0.3026455233,4.010901085,0.986731967,4.141565139,0
61.22493338,-0.4865583627,4.446186529,0.4089156711,4.491383497,0
61.23496338,-0.4230959,5.027329014,-0.2512080789,5.051351567,0
61.24499238,-0.2747241915,5.463968673,-1.130813208,5.586516406,0
61.25502238,-0.4234831318,5.31630075,-1.821395689,5.635589932,0
61.26505238,-1.055065745,4.426888379,-2.014741476,4.976915476,0
61.27508138,-0.7181317838,2.914615978,-2.89568474,4.17081403,0
61.28511138,0.4515690628,0.1468621767,-5.7780045,5.797483861,0
61.29514038,2.310176724,-3.458994094,-9.091757265,9.998080156,0
61.30517038,3.832914764,-7.383227749,-11.1201517,13.88744258,0
61.31519938,4.654973936,-10.11666073,-8.638164189,14.09373929,0
61.32522937,4.84725436,-9.029037107,-5.426785644,11.59609367,0
61.33525838,3.593318671,-4.961282959,-4.533193391,7.620768333,0
61.34528867,1.770881008,-0.7112032717,-4.14584342,4.563972755,0
61.35531867,0.1937243941,2.465765578,-2.079741172,3.231540247,0
61.36534767,-1.32771878,4.057561866,1.249816326,4.448447628,0
61.37537767,-3.182324607,2.824672937,4.799712404,6.41429702,0
61.38540667,-4.631605246,-0.5820055336,8.390351003,9.601483612,0
61.39543667,-5.536281189,-4.774827531,9.092122132,11.66687928,0
61.40546567,-6.101417506,-10.24928143,3.588835026,12.45611506,0
61.41549567,-3.126016797,-14.47187043,-7.30537675,16.50986203,0
61.42552467,-0.8565691459,-11.83716418,-6.692893775,13.62523371,0
61.43555467,-2.092980291,-3.683014374,3.588769537,5.55197516,0
61.44558467,-2.541209863,2.618194889,6.722244458,7.648611809,0
61.45561367,-3.014173303,5.452455506,5.263089334,8.155649642,0
61.46564367,-3.474300351,6.604854003,3.113568368,8.086356862,0
61.47567267,-3.485837492,5.709691479,2.56839503,7.165772313,0
61.48570267,-3.003261229,3.695938475,3.953201931,6.189292748,0
61.49573167,-2.285150495,2.001604244,5.399132992,6.195076222,0
61.50576167,-1.820660255,0.9092572367,4.689854039,5.112365734,0
61.51579067,-1.416342104,0.02571020722,4.049109131,4.289751826,0
61.52582067,-0.742658076,-0.489531818,3.636196888,3.743408905,0
61.53585067,-0.03919812575,-0.5926258314,3.253534923,3.307299709,0
61.54587967,0.7755238134,-0.4571616322,2.741286964,2.885322887,0
61.55590967,2.036958703,-0.5872282666,2.036462274,2.939594596,0
61.56593867,5.169187143,-0.9827538139,-2.163129483,5.689062308,0
61.57596867,5.610425053,-1.303834366,-2.859604204,6.430722318,0
61.58599767,3.005145494,-1.587904966,2.41322893,4.168454809,0
61.59602767,2.766333805,-1.739001696,4.832123812,5.833193821,0
61.60605667,4.05588313,-1.378875192,0.9344458723,4.384595061,0
61.61608667,3.759615823,-0.8453845918,-3.244670544,5.037586047,0
61.62611667,1.92723687,-0.7439237058,-3.14330526,3.76138703,0
61.63614567,0.7583533184,-0.8574164075,-1.421864068,1.825365739,0
61.64617567,0.6823003386,-0.6622638309,0.2467198292,0.9823430195,0
61.65620467,0.8069207302,-0.3905606765,1.048929823,1.379823351,0
61.66623467,1.383718733,-0.1413535148,0.9174632192,1.666252414,0
61.67626367,1.770934656,0.6389527363,0.6195312095,1.98199119,0
61.68629367,1.573693016,1.413083743,0.4342224205,2.159135124,0
61.69632267,1.556345789,1.710818701,0.2454520798,2.325802994,0
61.70635267,1.77601501,1.651800415,0.2568366086,2.438983183,0
61.71638267,1.246889209,1.492468466,0.1142685541,1.948140684,0
61.72641167,0.9563252762,1.145684139,0.258413018,1.514571711,0
61.73644167,0.8800612119,0.8538156921,0.3946858871,1.288132727,0
61.74647067,0.6823725517,0.6056388098,0.3361376802,0.9723266978,0
61.75650067,0.3491929413,0.4059873855,0.2361315815,0.5852517332,0
61.76652967,0.1963562259,0.3102304584,0.02904079953,0.3682961754,0
61.77655967,0.1291668941,0.3631267101,-0.319908185,0.5008855567,0
61.78658867,-0.09113601878,0.4613143247,-0.6277886474,0.7843693428,0
61.79661867,-0.3871887334,0.5119652456,-0.867163716,1.078886666,0
61.80664867,-0.4891730914,0.682018649,-1.093060368,1.378122171,0
61.81667767,-0.6411897348,1.046625289,-1.299146068,1.787268664,0
61.82670767,-0.8377623077,1.201799283,-1.593355156,2.164474036,0
61.83673667,-0.9365577404,1.158379029,-1.678392967,2.244100115,0
61.84676667,-0.7680367461,1.122481803,-1.692099425,2.17095516,0
61.85679567,-0.3016644336,1.194171005,-1.51621167,1.953444048,0
61.86682567,0.08675718516,1.173084776,-1.169625564,1.658818453,0
61.87685467,0.156586681,0.7969766629,-0.7845623662,1.129260509,0
61.88688467,0.1312322769,0.1813309282,-0.435034014,0.4892416676,0
61.89691467,0.3092778008,-0.3330410314,-0.3159753478,0.5535426876,0
61.90694367,0.6252959794,-0.6338761836,-0.6581298494,1.10721677,0
61.91697367,0.9652298547,-0.7554316109,-1.122143249,1.661791522,0
61.92700267,1.124923161,-0.7305107778,-1.211523934,1.807453556,0
61.93703267,1.020741274,-0.7493545997,-0.8830786675,1.543785282,0
61.94706167,1.098380749,-0.8333562845,-0.449771921,1.450247478,0
61.95709167,1.243690636,-0.950362578,-0.1766749366,1.575172836,0
61.96712067,1.414176003,-1.045484498,0.08079682589,1.760528253,0
61.97715067,1.471849576,-1.109259494,0.2772802287,1.863781673,0
61.98718067,1.544403582,-1.351206753,-0.04191693485,2.052486088,0
61.99720967,2.08094219,-1.527978607,-0.4990095699,2.629458037,0
62.00723967,2.531555233,-1.692749051,-0.8537642366,3.162765343,0
62.01726867,2.547089238,-1.919852568,-1.135957734,3.385837776,0
62.02729867,2.506739942,-2.197828031,-1.709440659,3.746515789,0
62.03732767,2.660663216,-2.326242827,-2.500770519,4.32947891,0
62.04735767,2.714832407,-2.43610967,-3.258370278,4.891004211,0
62.05738667,3.074055808,-2.628260286,-3.951648325,5.654475725,0
62.06741667,3.752476665,-3.222243841,-4.322614397,6.568784646,0
62.07744567,4.107386575,-4.132110357,-4.752378901,7.518647864,0
62.08747567,4.349467443,-4.304934756,-5.551421385,8.262482053,0
62.09750567,4.443977159,-4.055859157,-6.16497557,8.614281762,0
62.10753467,4.387189878,-3.986513518,-6.143453724,8.537080807,0
62.11756467,4.149259656,-3.925417716,-5.710307776,8.07668712,0
62.12759367,3.252721868,-3.132317757,-5.031653615,6.760854397,0
62.13762367,2.49164477,-1.704437635,-3.865249282,4.904442203,0
62.14765267,1.803249294,-0.6942340672,-2.113693029,2.863802922,0
62.15768267,1.13295899,-0.2283524823,-0.1238323514,1.162357682,0
62.16771167,0.07241952002,-0.0287490052,1.485397428,1.487439616,0
62.17774167,-0.9454278204,-0.3607275975,2.660296011,2.84624894,0
62.18777167,-1.113524892,-1.383645936,3.453960811,3.883845909,0
62.19780067,-1.245966373,-2.416014544,4.149809879,4.960895132,0
62.20783067,-2.029263328,-3.224404387,4.043180054,5.555357617,0
62.21785967,-2.859787222,-4.220820805,2.397930129,5.634161883,0
62.22788967,-3.542072504,-4.714031691,-0.1723197842,5.898988601,0
62.23791867,-3.701533676,-4.576986405,-1.973025247,6.208299665,0
62.24794867,-3.836019636,-4.273347512,-1.940329371,6.061470422,0
62.25797767,-3.431322146,-3.522255705,-0.4782238877,4.940541975,0
62.26800767,-2.236146589,-2.289460332,1.710867233,3.62891814,0
62.27803767,-1.442637033,-0.9532540262,3.792580086,4.168160092,0
62.28806667,-0.5701160245,-0.04880086184,5.527109832,5.556649791,0
62.29809667,-0.1472645382,0.4613464844,5.293768505,5.315873626,0
62.30812567,0.6145156141,0.6259701633,3.553037495,3.65971905,0
62.31815567,1.218298518,0.784332059,2.217522915,2.648931093,0
62.32818467,1.136771959,0.7703946358,1.749812028,2.224320237,0
62.33821467,1.213597356,0.4269911689,2.477405923,2.79153723,0
62.34824413,1.693039073,0.1027484429,3.459245524,3.852702706,0
62.35827413,1.688635973,0.08812689543,3.571010081,3.951122727,0
62.36830413,0.9630645577,0.3709467763,3.075623446,3.244156969,0
62.37833313,-0.008654390797,0.7718500078,2.509995379,2.626005357,0
62.38836313,-1.366138641,1.208045279,3.040071498,3.545101253,0
62.39839213,-2.516416499,1.873756043,4.145592575,5.198966388,0
62.40842213,-3.157574805,2.604521175,4.735069681,6.258969091,0
62.41845113,-3.567400011,3.087552643,4.96510353,6.84920267,0
62.42848113,-4.045190327,3.34377354,4.916973928,7.191732676,0
62.43851013,-4.323420436,3.444682449,4.639812983,7.217039972,0
62.44854012,-4.270037696,3.819462075,4.31515949,7.172315797,0
62.45857012,-4.034807134,4.335553116,3.92928448,7.107458474,0
62.46859912,-3.573639574,4.692090014,3.780099497,7.005409389,0
62.47862912,-3.163807645,4.756584803,3.464041703,6.680895353,0
62.48865812,-2.945846542,4.59877313,2.856149961,6.163141954,0
62.49868812,-2.768083877,4.408761426,2.05989309,5.598448464,0
62.50871712,-2.701331478,4.117740825,1.243284401,5.079245747,0
62.51874712,-2.726038303,3.665797248,0.7441429764,4.62850981,0
62.52877612,-2.551797124,3.103444206,0.2715771469,4.027007406,0
62.53880612,-2.482017622,2.289962023,-0.6718129188,3.443206375,0
62.54883612,-2.562489342,1.019533385,-1.784997064,3.285120161,0
62.55886512,-2.183127984,-0.1301794857,-2.42443775,3.26510228,0
62.56889512,-1.287376792,-1.029685906,-3.556726503,3.920190746,0
62.57892412,0.09713051118,-1.841567706,-4.785709784,5.128725386,0
62.58895412,1.817825379,-2.373164978,-4.869042255,5.713490492,0
62.59898312,3.910265241,-2.214459851,-4.710044182,6.509878869,0
62.60901312,4.91136294,-1.889600828,-4.808679694,7.128497571,0
62.61904212,4.994547184,-2.192656168,-4.306617877,6.949834544,0
62.62907212,4.866344934,-2.857257131,-3.726333472,6.762454619,0
62.63910212,4.661695895,-3.365089565,-3.769999309,6.875182265,0
62.64913112,4.307739081,-3.587852109,-4.305311317,7.068592808,0
62.65916112,4.011408331,-3.465876267,-5.027181079,7.305904783,0
62.66919012,3.677111903,-2.634495757,-4.477089356,6.364436263,0
62.67922012,2.998995978,-0.8225032675,-2.801280566,4.185410531,0
62.68924912,1.55745676,1.470949543,-1.700756813,2.735313118,0
62.69927912,-0.7969538587,3.026169158,-1.1177248,3.322972157,0
62.70930812,-3.923665598,2.005685601,-0.01900929809,4.406618636,0
62.71933812,-6.9582948,-1.574769781,2.632106292,7.604324422,0
62.72936812,-8.755568678,-5.176358169,4.11800395,10.97326858,0
62.73939712,-8.865034402,-8.357938133,2.845259814,12.51157337,0
62.74942712,-6.242842357,-11.03382574,-1.68947578,12.7895551,0
62.75945612,-0.2394847587,-11.19292497,-7.539647784,13.4976002,0
62.76948612,2.721096236,-6.982922103,-1.302211471,7.606662904,0
62.77951512,0.1092729945,0.24949426,7.664329133,7.669167428,0
62.78954512,-2.976722471,5.63340578,7.754948112,10.03670053,0
62.79957412,-3.363159691,7.99542538,3.138030779,9.224148053,0
62.80960412,-3.786681122,8.645336968,0.196097779,9.44029976,0
62.81963312,-5.049037971,5.918227163,2.406688235,8.143116446,0
62.82966312,-5.542530109,2.811067051,4.548455501,7.70131063,0
62.83969312,-3.847088415,1.535819723,3.814754482,5.631268352,0
62.84972212,-1.91976866,0.0118786186,3.361493527,3.871084027,0
62.85975212,-0.02601323918,-1.472130681,3.433212551,3.735611576,0
62.86978112,6.109233479,-2.616757643,0.8685886824,6.702581634,0
62.87981112,10.09318884,-4.140849021,-1.759933559,11.05063155,0
62.88984012,8.556939932,-5.17746914,-0.7682095313,10.03083015,0
62.89987012,-2.365624263,-3.597365529,7.261858263,8.442262868,0
62.90989912,-4.105506696,-0.3638371468,11.22497356,11.95774202,0
62.91992912,-0.488249012,1.628191697,9.030056276,9.188651242,0
62.92995913,-1.550124644,2.175637262,7.167546183,7.649183106,0
62.93998812,-1.336315941,2.299131626,4.587464615,5.302506777,0
62.95001813,-1.350857966,2.194485177,3.488501191,4.337075397,0
62.96004713,-2.324626656,1.831608728,2.813350389,4.083334426,0
62.97007713,-2.961876099,1.056715829,1.991554635,3.722317588,0
62.98010613,-2.650424449,0.5302255154,1.314751117,3.005737739,0
62.99013613,-2.09757284,0.4779139853,0.5939999636,2.231826506,0
63.00016513,-1.222814542,0.3729687434,-6.257867947,6.387119251,0
63.01019513,0.288640784,-0.0439301312,-17.93385246,17.9362289,0
63.02022513,1.011667711,-0.5108110052,-11.26306817,11.31994276,0
63.03025413,1.419956852,-1.12706602,-1.169920263,2.15760717,0
63.04028413,2.879660738,-1.176866171,3.402856146,4.610519483,0
63.05031313,4.431889502,-0.9346470165,4.010468391,6.049716218,0
63.06034313,4.409922975,-0.5959014416,1.782580994,4.793757834,0
63.07037213,3.028692524,0.09598847687,-1.230024378,3.270344349,0
63.08040213,1.939051462,0.6505109274,-2.51889338,3.244673928,0
63.09043113,1.746868832,0.7907370991,-1.776389378,2.613881233,0
63.10046113,1.359146687,0.6269191664,-0.8367400682,1.714771501,0
63.11049013,0.6818750267,0.6909432542,-0.9199190497,1.337388197,0
63.12052013,0.2049842311,0.9144682753,-1.643327799,1.891770868,0
63.13055013,-0.06545292802,1.090080042,-1.980000536,2.261185686,0
63.14057913,-0.1132042146,1.161605523,-1.8650893,2.20015924,0
63.15060913,0.1753522964,1.170603803,-1.475112176,1.891300511,0
63.16063813,0.4099757713,1.247916273,-0.9401118243,1.61529731,0
63.17066813,0.4977700333,1.197540756,-0.5252898441,1.399217027,0
63.18069713,0.5121032399,1.125771446,-0.2704822193,1.266006204,0
63.19072713,0.4137010324,1.021521438,-0.0903534786,1.10581117,0
63.20075613,0.3948601341,0.8609592354,0.123834672,0.9552488454,0
63.21078612,0.3322079493,0.6705241925,0.3695587204,0.8345887982,0
63.22081612,0.2566896974,0.4937652022,0.2758307771,0.6211089221,0
63.23084512,0.3354259644,0.1999695128,-0.002176406756,0.3905164791,0
63.24087512,0.5634913485,-0.02490387619,-0.2261353643,0.607684051,0
63.25090412,0.610065883,-0.3424743444,-0.2447556764,0.7411979487,0
63.26093412,0.4848400122,-0.622337873,-0.08244281709,0.7932030532,0
63.27096312,0.5299580052,-0.7639083195,0.1790755109,0.9468259853,0
63.28099312,0.7550918877,-0.8204292601,0.3954659057,1.183072784,0
63.29102212,1.053020389,-0.8846223325,0.3324142098,1.414887917,0
63.30105212,1.394974185,-1.031236587,-0.1964401335,1.745849536,0
63.31108112,1.786264886,-1.218837485,-1.135411751,2.442430532,0
63.32111112,2.092639983,-1.31799983,-1.766087168,3.038968499,0
63.33114112,2.285816055,-1.520727475,-1.772349536,3.26784179,0
63.34117012,2.457523635,-1.893690371,-1.596239733,3.489049573,0
63.3511995,2.792841865,-2.266896511,-1.706171919,3.981181746,0
63.3612285,3.108773943,-2.628478387,-2.315758769,4.683600403,0
63.3712585,3.237819069,-2.71308175,-2.944341468,5.149119496,0
63.3812875,3.671701766,-3.021805381,-3.492292233,5.899898869,0
63.3913175,4.489028201,-3.79984759,-3.654934875,6.924504664,0
63.4013465,5.184885748,-4.2845882,-3.790389134,7.720607881,0
63.4113765,5.651677744,-3.943051749,-4.665470565,8.322003005,0
63.4214055,5.622814718,-3.137760345,-5.606550688,8.537856637,0
63.4314355,5.172434102,-2.747316028,-5.678870806,8.157903746,0
63.4414655,4.392612585,-2.634032657,-5.062193622,7.20131777,0
63.4514945,3.554135894,-2.876545342,-5.078091617,6.833257607,0
63.4615245,3.061101594,-2.905261602,-5.417867471,6.867617919,0
63.4715535,1.629130467,-1.818044357,-4.490879722,5.111492154,0
63.4815835,-0.6068007977,-0.8073180485,-2.555998056,2.748289596,0
63.4916125,-2.061233857,-0.5120406747,-0.9394230223,2.322366526,0
63.5016425,-2.440525049,-0.5079166335,0.6986861372,2.588880866,0
63.5116715,-2.365310852,-0.8632262009,2.175762978,3.327731875,0
63.5217015,-2.415491364,-1.619825501,3.777394867,4.767299567,0
63.5317305,-3.256385148,-2.699042001,4.715043844,6.334075339,0
63.5417605,-5.189696837,-4.087908915,3.741742054,7.592403187,0
63.5517905,-7.248938255,-4.912546417,0.7728032501,8.790758954,0
63.5618195,-7.920922498,-4.983317606,-1.979786528,9.565250769,0
63.5718495,-7.5773518,-4.643129523,-2.518455131,9.236748796,0
63.5818785,-6.655665137,-3.72421561,-0.919890106,7.682047783,0
63.5919085,-5.362593157,-2.320912505,1.083913276,5.942971328,0
63.6019375,-4.19807192,-0.7322643578,2.35033774,4.866631939,0
63.6119675,-3.65614905,0.3294455785,3.211716806,4.877610594,0
63.6219965,-3.30282812,1.153038182,3.516722777,4.960394111,0
63.6320265,-2.289027053,1.769997786,3.923068889,4.874731431,0
63.6420565,-0.7338198633,1.929322134,3.748126921,4.27892871,0
63.6520855,0.2109761654,1.910360783,2.489179584,3.144837716,0
63.6621155,0.8731256101,1.514258115,1.247282727,2.14733327,0
63.6721445,1.909751211,0.9065189856,1.007952974,2.341985388,0
63.6821745,2.415372958,0.3877949435,0.8263308549,2.582098783,0
63.6922035,2.432738604,-0.1612030578,1.390776323,2.806859868,0
63.7022335,1.594777198,-0.3655363476,2.550544066,3.030215531,0
63.7122625,0.05731907646,0.05344705939,2.8008315,2.801927757,0
63.7222925,-1.525898752,0.8357770318,3.132614211,3.583317184,0
63.7323215,-2.13867672,1.588858062,3.669433047,4.53466062,0
63.7423515,-2.381951443,2.405864947,4.147581505,5.353906159,0
63.7523815,-2.885250676,3.111758362,4.403248671,6.115252278,0
63.7624105,-3.137510669,3.44283356,4.504927073,6.480080559,0
63.7724405,-3.279169993,3.588528047,4.505792461,6.628171323,0
63.7824695,-3.23237882,3.771920119,4.250134066,6.53752964,0
63.7924995,-2.856834378,4.010272509,3.825741985,6.235390124,0
63.8025285,-2.435605055,4.077661085,3.454200547,5.872903313,0
63.8125585,-1.906819563,4.074624041,3.092573647,5.459169689,0
63.8225875,-1.461628058,4.171462703,2.527561,5.091760233,0
63.8326175,-1.158368358,4.286856335,1.83586287,4.805137559,0
63.8426465,-0.8324019458,4.263247617,1.318466438,4.539441264,0
63.8526765,-0.5519436092,4.033910463,0.8979826355,4.169346254,0
63.8627055,-0.3819459736,3.61100299,0.4905103496,3.664126871,0
63.8727355,-0.5710903168,2.971419339,-0.1937346268,3.031997715,0
63.8827655,-1.04629843,1.765977826,-1.474036581,2.527093573,0
63.8927945,-1.147638206,0.5419328105,-2.736900091,3.016850465,0
63.9028245,-1.122678854,-0.5553521705,-3.199244695,3.435693592,0
63.9128535,-0.6704445241,-1.274596533,-2.89974797,3.237689064,0
63.9228835,0.7556967822,-1.652849405,-4.165859024,4.545037975,0
63.9329125,1.894240594,-1.661878676,-4.972755196,5.574789897,0
63.9429425,2.440137378,-1.041487926,-4.327187212,5.075777447,0
63.9529715,2.562970861,-0.277630477,-3.624456849,4.447761882,0
63.9630015,2.688849427,0.1807070303,-3.425086968,4.358186206,0
63.9730305,2.840014569,0.1445642209,-3.355159239,4.398144505,0
63.9830605,2.586132559,-0.5618607062,-2.744881833,3.812891992,0
63.9930905,2.456987446,-1.427555602,-2.130282457,3.551451204,0
64.0031195,2.591433645,-1.975174829,-2.115496895,3.884864355,0
64.0131495,2.760926885,-2.200061667,-2.967839381,4.612055853,0
64.0231785,2.760262349,-2.212278255,-3.651449058,5.083925996,0
64.0332085,2.442763216,-1.933950205,-3.896372842,4.988885331,0
64.0432375,1.739682312,-1.082533041,-3.986132572,4.481922044,0
64.0532675,0.4525640031,0.248440007,-3.70629711,3.742081624,0
64.0632965,-1.108450751,1.576560198,-3.239510376,3.76943399,0
64.0733265,-2.441310037,1.913819996,-2.137343993,3.767086543,0
64.0833555,-4.216097424,-0.2552473354,-0.1734611607,4.227377138,0
64.0933855,-6.331756872,-3.625289492,1.816055719,7.518771666,0
64.1034155,-7.855298612,-6.555859598,2.604412124,10.55783945,0
64.1134445,-7.353469514,-8.512548455,2.933796892,11.62515201,0
64.1234745,-5.522538478,-8.967975803,0.8743927749,10.56823467,0
64.1335035,-2.055919469,-9.283537753,-8.819858229,12.96922423,0
64.1435335,0.8423777343,-6.144040784,-6.274841244,8.822271252,0
64.1535625,-0.08372186811,0.5485319781,4.851684795,4.883312609,0
64.1635925,-2.181122097,5.769606729,9.550127517,11.36884299,0
64.1736215,-2.853962518,8.099418696,7.065501745,11.12056654,0
64.1836515,-4.158293897,8.247547964,2.139601603,9.481104923,0
64.1936805,-6.198738563,6.043092114,-0.4293949592,8.667623787,0
64.2037105,-7.216987315,2.509328504,2.073557303,7.917150708,0
64.2137405,-5.887987702,0.6141757447,2.866307744,6.577334651,0
64.2237695,-3.585453581,0.06847440362,1.982188711,4.097467292,0
64.2337995,-2.094618389,-0.323703028,2.243542732,3.086372277,0
64.2438285,-1.529882314,-0.9895839465,3.303128375,3.772329962,0
64.2538585,-0.4115466989,-1.698373488,3.714075369,4.104655775,0
64.2638875,2.659607209,-2.455465708,4.305644023,5.625068249,0
64.2739175,10.92253803,-3.610436395,-1.068554102,11.5533067,0
64.2839465,4.289113945,-2.95795671,3.996287724,6.566301996,0
64.2939765,8.354546748,-0.7443587387,1.560037282,8.531485077,0
64.3040055,6.188977221,0.4481656909,1.579302542,6.403006173,0
64.3140355,-0.343777908,1.01147943,7.249966196,7.328252433,0
64.3240655,-1.990680476,1.674443173,6.594317905,7.088836105,0
64.3340945,-1.748971345,2.071451574,4.816560863,5.527121397,0
64.3441245,-2.233036309,1.669005847,4.622228651,5.397872671,0
64.354154,-1.874142837,1.07668524,3.984995581,4.533415077,0
64.364184,-2.184853059,0.6541081345,3.440356679,4.127649988,0
64.374213,-2.784884097,0.3629898852,2.831800693,3.988287384,0
64.384243,-2.674276119,0.09751050711,2.022532014,3.354384713,0
64.394272,-2.300269495,0.05604965508,0.7414433169,2.417461376,0
64.404302,-1.464166627,0.4352603012,-0.6252521253,1.650507698,0
64.414331,-0.91739181,0.433408488,-1.370424212,1.705143152,0
64.424361,0.3151525714,-0.1346023196,-6.661650932,6.670459659,0
64.43439,2.62371583,-0.7327970392,-15.95757075,16.18841995,0
64.44442,2.493174109,-1.123980444,-9.83341459,10.20662979,0
64.45445,1.312754878,-1.193219664,-1.62930793,2.408680732,0
64.464479,0.8553487589,-0.7629031831,1.206562425,1.664162147,0
64.474509,1.667894876,-0.1702884614,1.39245652,2.179405111,0
64.484538,2.29117035,0.4496666712,1.081152001,2.573043206,0
64.494568,2.858861315,0.8888755971,-0.1658217734,2.998447049,0
64.504597,2.804953203,1.040299187,-1.723879042,3.452787833,0
64.514627,2.48191588,0.9363982576,-1.809577589,3.211124287,0
64.524656,1.955592212,0.9082836753,-0.9005904937,2.336746321,0
64.534686,1.3575235,1.196321027,-0.2741449882,1.830084568,0
64.544715,0.621880036,1.43807065,-0.1849236037,1.577649743,0
64.554745,-0.008503386453,1.478497129,-0.4001432396,1.531711683,0
64.564774,-0.2166767621,1.198010872,-0.8427398962,1.480671942,0
64.574804,0.118107105,0.6717760813,-1.245497864,1.420034268,0
64.584834,0.7690824475,0.08147393346,-1.422253785,1.618929165,0
64.594863,1.174620182,-0.411005466,-1.324829378,1.81764434,0
64.604893,1.234454521,-0.7111980093,-1.062592135,1.777296435,0
64.614922,0.9488570662,-0.9196331209,-1.274389542,1.835789616,0
64.624952,0.6439016734,-1.121583086,-1.867186112,2.271330438,0
64.634981,0.4356178585,-1.181160366,-2.315970877,2.636024247,0
64.645011,0.2886926781,-0.9648847228,-2.367671519,2.572977733,0
64.65504,0.4274031052,-0.8642681748,-1.91243289,2.14173585,0
64.66507,0.7664280309,-0.6804159272,-1.241134672,1.609594059,0
64.675099,1.209856892,-0.4245090258,-0.7464988196,1.48365161,0
64.685129,1.868864701,-0.3563725913,-0.5789990415,1.98869218,0
64.695159,2.622462772,-0.7174059981,-0.6853118008,2.803860663,0
64.705188,3.25842875,-1.29594004,-0.8333171082,3.60433571,0
64.715218,3.676415792,-2.059877595,-1.237496973,4.392098307,0
64.725247,3.788893709,-2.754948984,-2.123979451,5.143612364,0
64.735277,3.576015883,-3.33329533,-3.118741107,5.798732055,0
64.745306,3.628511893,-4.004037039,-3.639885896,6.515150075,0
64.755336,3.684656273,-5.004890909,-3.797961279,7.283552343,0
64.765365,3.276328247,-5.065885554,-3.967794242,7.220866594,0
64.775395,2.143510321,-4.52863227,-4.804357724,6.941541607,0
64.785424,1.746368311,-4.050273312,-5.349034633,6.933014329,0
64.795454,2.210395744,-3.571678126,-5.049146145,6.567846738,0
64.805484,1.90981363,-3.194348529,-4.896867108,6.150655095,0
64.815513,1.061111766,-2.568494725,-5.073928399,5.785142412,0
64.825543,-0.2883995864,-1.531662353,-4.50391609,4.765965173,0
64.835572,-1.793133464,-0.4867578989,-3.009495238,3.536852055,0
64.845602,-3.317031299,0.1339409995,-1.61072314,3.689859871,0
64.855631,-4.503933631,0.2022259533,-0.5576828706,4.54283212,0
64.865661,-5.10412576,-0.08455132306,0.6972184861,5.152219164,0
64.87569,-5.270425251,-0.6628415358,1.83517436,5.620018341,0
64.88572,-5.398122008,-1.722276905,2.636770324,6.249681327,0
64.895749,-5.53708752,-2.973055975,2.793102651,6.877486638,0
64.905779,-6.319453745,-3.452696058,1.945274946,7.459269423,0
64.915809,-5.891460364,-3.365973079,0.7644044557,6.828132553,0
64.925838,-4.381191219,-3.137066866,0.2721646459,5.395377523,0
64.935868,-3.057057075,-2.893329189,0.5660394189,4.247040426,0
64.945897,-1.638562903,-2.287300955,0.9954121587,2.984540067,0
64.955927,-0.7550882332,-1.142017935,1.955258628,2.386922602,0
64.965956,0.0497874333,-0.06946667612,3.228527551,3.229658582,0
64.975986,1.051492292,0.9857142591,4.142180724,4.385764448,0
64.986015,1.248085257,1.80729659,3.97536434,4.541757304,0
64.996045,1.613955481,1.933998152,3.180830643,4.057448056,0
65.006074,2.051018771,1.484029765,2.397476824,3.486677138,0
65.016104,2.060382064,0.7749519557,1.641807816,2.746135045,0
65.026133,1.749525222,0.1520667833,1.532504936,2.330779739,0
65.036163,1.469441985,-0.140464738,2.068914759,2.541534649,0
65.046193,1.152230389,-0.04149710476,2.409642541,2.671279479,0
65.056222,0.9298379009,0.205322054,2.603010839,2.771718077,0
65.066252,0.3955006235,0.6131951666,2.835165181,2.927557115,0
65.076281,-0.880938952,1.228314067,2.620179141,3.024921093,0
65.086311,-1.750232736,1.997519964,2.884273899,3.920769894,0
65.09634,-2.194676381,2.612813696,3.242435446,4.707099686,0
65.10637,-2.580313702,3.133601806,3.53620453,5.383513867,0
65.116399,-3.174489923,3.422061911,3.337200393,5.738013633,0
65.126429,-3.660405238,3.691755962,3.223159515,6.11689348,0
65.136458,-3.83564366,3.894226329,3.375305528,6.424161299,0
65.146488,-3.948664784,4.168671243,3.12306103,6.536305049,0
65.156517,-4.101996904,4.562803983,2.801334361,6.744852333,0
65.166547,-4.053531673,4.818228489,2.46777702,6.762866864,0
65.176577,-3.877705313,4.877521595,2.018857331,6.550007659,0
65.186606,-3.645189029,4.808144381,1.575770532,6.236081158,0
65.196636,-3.475682048,4.592380369,1.32404322,5.909603506,0
80.25096879,-2.509942754,4.267380429,1.629999948,5.212221042,0
80.26099779,-2.13502338,3.847147472,0.8637533274,4.483853065,0
80.27102779,-2.02082375,3.320265394,0.1654589537,3.890407123,0
80.28105679,-2.078431103,2.796189396,-0.3597911659,3.50257058,0
80.29108679,-2.085855166,2.219457466,-0.2565129653,3.056563777,0
80.30111579,-2.273259598,1.387456566,-0.3172053096,2.682044766,0
80.31114579,-2.183718114,0.5766974312,-1.151353015,2.535117057,0
80.32117579,-0.9992094867,0.06135132551,-2.128092967,2.351800004,0
80.33120479,0.5232178832,-0.5619039756,-2.664574711,2.772986012,0
80.34123479,2.322317298,-0.9736777657,-3.246319166,4.108502666,0
80.35126379,3.888843967,-1.441762581,-4.406073168,6.051055073,0
80.36129379,5.352725396,-2.314418587,-5.793792567,8.220476559,0
80.37132225,6.745989416,-3.620275505,-6.426645488,9.995826137,0
80.38135225,7.590898045,-4.958854026,-5.910916389,10.82362688,0
80.39138125,7.605656417,-5.566996613,-4.777370193,10.56696393,0
80.40141125,7.130260243,-4.794753088,-4.519323503,9.70847842,0
80.41144025,5.776738577,-3.055429795,-4.609660353,7.997207537,0
80.42147025,2.835231839,-1.047794732,-3.194515759,4.397879526,0
80.43149925,-0.7056990684,-0.2299394166,-1.083317152,1.31318672,0
80.44152925,-3.740437248,-1.737596025,1.322872023,4.331293241,0
80.45155825,-6.361304607,-4.122332059,3.680504457,8.426501704,0
80.46158825,-8.020935028,-6.044797162,5.678403028,11.53773082,0
80.47161825,-8.348408341,-7.126780565,4.61850836,11.90871708,0
80.48164725,-6.738730098,-7.402491986,-2.894555351,10.42045208,0
80.49167725,-3.220106976,-6.22680169,-9.302783278,11.6483443,0
80.50170625,-1.128604203,-3.429420632,-3.702043553,5.17105403,0
80.51173625,-1.3507036,1.113314538,4.610150642,4.93126337,0
80.52176525,-3.041602007,4.990410864,7.938457128,9.857720067,0
80.53179525,-3.673660583,6.976131147,5.513902141,9.62108646,0
80.54182425,-4.477134672,7.779950221,1.744086142,9.144079877,0
80.55185425,-5.5329512,6.693894233,1.32473553,8.785026648,0
80.56188325,-5.508549015,4.306997069,3.679644624,7.90152647,0
80.57191325,-4.052351997,2.660703562,4.531064712,6.635619607,0
80.58194225,-3.284722509,1.754364671,4.023193102,5.482087203,0
80.59197225,-3.354884419,0.5474829876,4.230199739,5.42674644,0
80.60200225,-3.02554146,-0.9028036648,4.415361178,5.428109239,0
80.61203125,-1.837684424,-2.215759102,4.308515006,5.181696054,0
80.62206125,2.489942645,-3.468596976,3.212169088,5.343127325,0
80.63209025,6.808064627,-5.157449443,5.127367272,9.961873512,0
80.64212025,6.737205144,-5.250449408,3.014209556,9.057737653,0
80.65214925,7.723611129,-4.468272632,1.060761079,8.985813444,0
80.66217925,6.173615416,-2.01968325,-0.0001026186347,6.49558679,0
80.67220825,3.985259875,0.317554096,0.840264916,4.085239528,0
80.68223825,1.220228245,2.26563936,-0.8563516295,2.712087165,0
80.69226725,0.3679962713,2.358673823,0.8379844288,2.53001608,0
80.70229725,-0.01291986153,1.711710986,3.257796081,3.680129988,0
80.71232625,-0.9188877471,1.435492027,3.507162287,3.89938192,0
80.72235625,-1.753603363,1.049105678,3.116623245,3.726806667,0
80.73238625,-2.483518894,0.4588935775,1.874751824,3.145336837,0
80.74241525,-2.382835834,0.2081573689,0.405261271,2.425999341,0
80.75244525,-2.179829716,0.4770070821,-0.4739413869,2.281186925,0
80.76247425,-1.649572333,0.6725110763,-2.551232575,3.111614964,0
80.77250425,0.0816838485,0.3816881114,-4.69930197,4.715484818,0
80.78253325,1.429275414,0.3860238218,-3.768668482,4.049037507,0
80.79256325,1.757640281,0.290110774,-1.168577743,2.130501715,0
80.80259225,1.771839952,0.135848946,0.3999776173,1.821497693,0
80.81262225,1.700148995,0.07654414594,0.4027129447,1.748869156,0
80.82265125,1.235632442,0.0437377578,-0.2174526876,1.255382888,0
80.83268125,0.8250286069,0.1519977862,-0.8299947202,1.180113031,0
80.84271025,0.8409009469,0.2526529258,-0.9300452578,1.279035607,0
80.85274025,0.9353287288,0.2283214921,-0.5804981214,1.124254688,0
80.86277025,0.7414099878,0.2206002438,-0.4074345714,0.8742746522,0
80.87279925,0.5535384373,0.3824166745,-0.4202581366,0.7932617574,0
80.88282925,0.5675088242,0.7983472502,-0.475430088,1.088787567,0
80.89285825,0.3679105365,1.124344726,-0.4495643449,1.265550206,0
80.90288825,-0.004848218858,1.186484841,-0.4775959333,1.279010421,0
80.91291725,-0.09096827678,1.027202008,-0.8787534821,1.354853083,0
80.92294725,-0.06319699913,0.6572100824,-1.431836933,1.576729512,0
80.93297625,-0.04156610191,0.298435455,-1.793219419,1.81835842,0
80.94300625,-0.1290745812,-0.09996633768,-1.796038946,1.803443764,0
80.95303525,0.05234412834,-0.2810054898,-1.659100664,1.683543586,0
80.96306525,0.2673205932,-0.1531561196,-1.451611047,1.483944651,0
80.97309425,0.3388766988,0.1597435927,-1.336279981,1.387803883,0
80.98312425,0.4325760638,0.534726702,-1.389018357,1.549976353,0
80.99315425,0.618959571,0.6813561594,-1.55340347,1.805663177,0
81.00318325,0.9975783328,0.5530501217,-1.581810413,1.950166954,0
81.01321325,1.573707926,0.2642274892,-1.236752184,2.018892956,0
81.02324225,2.040077461,0.2841916376,-0.3315202437,2.086285361,0
81.03327225,2.640620423,0.3124547392,0.08575285278,2.660424352,0
81.04330125,3.271017513,0.1333562779,-0.4339470166,3.302370282,0
81.05333125,3.672320986,0.02076229334,-0.7354967717,3.745307464,0
81.06336025,3.855351115,-0.2872830606,-0.5233427578,3.901301247,0
81.07339025,3.760618328,-1.100008614,-0.01981095135,3.918247266,0
81.08341925,3.618925382,-2.30109746,0.22004125,4.294192427,0
81.09344925,3.826796238,-3.250618624,0.1268915963,5.022647943,0
81.10347825,3.767806603,-3.995629912,0.3488092909,5.503007624,0
81.11350825,2.80314232,-4.555654008,-0.2266802517,5.353781303,0
81.12353825,2.047645513,-4.545134867,-3.086062773,5.863010024,0
81.13356725,2.010530896,-3.982285981,-5.690533077,7.23069864,0
81.14359725,1.506679831,-3.522669103,-6.65473426,7.678852115,0
81.15362625,0.8371799981,-3.743297998,-6.854204421,7.854506254,0
81.16365625,0.07939035125,-3.737910959,-6.457242798,7.461518995,0
81.17368525,-0.6660739497,-3.126370554,-5.948888792,6.753304762,0
81.18371525,-1.951487174,-2.208210347,-5.312108881,6.074783609,0
81.19374425,-2.626578919,-1.816324106,-4.787903659,5.755169114,0
81.20377425,-2.86869487,-1.752404684,-3.722300062,5.015560805,0
81.21380325,-3.475531774,-1.679892193,-1.857268649,4.283784043,0
81.22383325,-4.191221614,-1.421357553,0.4396028821,4.447453947,0
81.23386225,-5.416771703,-0.9637667352,2.24312758,5.941538802,0
81.24389225,-6.396273295,-0.9459958774,2.202054398,6.830539059,0
81.25392225,-7.171931595,-1.355967556,0.9967201808,7.366729392,0
81.26395125,-7.077120747,-2.069274656,0.5570636505,7.394447618,0
81.27398125,-6.312306109,-3.154053612,1.368697236,7.18794788,0
81.28401025,-5.447366089,-3.855538226,2.894001912,7.274216067,0
81.29404025,-3.950733528,-3.690486531,4.744680749,7.193050928,0
81.30406925,-1.936922929,-2.956172724,5.325450473,6.391482641,0
81.31409925,0.06611937356,-1.7588068,4.337775643,4.681246699,0
81.32412825,0.990310463,-0.3661561525,3.165881652,3.337303069,0
81.33415825,1.670906338,0.8803281373,2.69900721,3.294168414,0
81.34418725,1.313656811,1.327195746,2.463849153,3.091552266,0
81.35421725,0.8652273374,0.9145834655,1.738373705,2.146398006,0
81.36424612,0.1016335616,0.543655985,1.824503192,1.906489734,0
81.37427612,-0.3301637262,0.4803335631,2.330435865,2.402219752,0
81.38430612,-1.091002294,0.8294129223,1.772930165,2.240868843,0
81.39433512,-1.455500615,1.319562206,1.112733325,2.257853385,0
81.40436512,-1.483535675,1.244961675,1.340693459,2.35547588,0
81.41439412,-1.746075658,1.330212325,1.72628751,2.792546078,0
81.42442412,-1.891040267,1.533755656,2.772021392,3.689517895,0
81.43445312,-2.210533445,1.676479173,3.501648655,4.467503087,0
81.44448313,-2.907642881,1.737956214,3.881410109,5.151720427,0
81.45451212,-3.27992253,2.026772999,4.423713341,5.868129201,0
81.46454213,-3.733429652,2.419609412,4.414387617,6.267361862,0
81.47457112,-4.111343386,2.871016214,3.796995903,6.289917045,0
81.48460113,-4.261304879,3.186206866,3.241916798,6.230622601,0
81.49463013,-4.150579957,3.25794577,2.866162733,6.004699279,0
81.50466013,-3.741277493,3.237574071,2.51135398,5.548508084,0
81.51469013,-3.186321764,3.157857226,2.295128038,5.039079415,0
81.52471913,-2.822337267,3.045444505,2.193808655,4.696074562,0
81.53474913,-2.55152172,3.068868451,2.060590371,4.491575373,0
81.54477813,-2.325757508,3.10571468,1.832089662,4.290823253,0
81.55480813,-2.18829473,3.076873289,1.467815143,4.050958449,0
81.56483713,-2.056712205,3.227886989,1.517168859,4.117173891,0
81.57486713,-1.799942693,3.293237225,2.359151833,4.432922568,0
81.58489613,-2.736619132,3.080484529,1.174146338,4.28451734,0
81.59492613,-2.814564563,2.882251639,-0.338021982,4.042697992,0
81.60495513,-2.508002356,2.787234385,-0.4899744523,3.781378888,0
81.61498513,-2.558784547,2.398459448,0.07754285038,3.507990732,0
81.62501413,-2.756280102,1.412878506,0.6163734207,3.158040828,0
81.63504413,-1.952856153,0.1053826135,-0.3816173601,1.99258236,0
81.64507413,0.1090945357,-1.45833476,-3.289898465,3.600288016,0
81.65510313,3.635389972,-3.457560357,-7.698498507,9.188996851,0
81.66513313,7.914948397,-6.207402967,-9.58762805,13.89607395,0
81.67516213,11.07498196,-8.857074003,-5.77804543,15.31302694,0
81.68519213,11.79735283,-8.747684292,-2.147081069,14.84282558,0
81.69522113,10.27305738,-6.214420211,-1.932725506,12.16100959,0
81.70525113,8.097359306,-3.937213889,-3.17600289,9.547558604,0
81.71528013,5.99103143,-1.969925784,-5.80137816,8.569075431,0
81.72531013,3.10995742,0.3975077534,-7.917760323,8.51591311,0
81.73533913,-0.08116271541,1.21940408,-7.768718305,7.864255705,0
81.74536912,-2.874397075,1.498301648,-6.956102679,7.674270705,0
81.75539813,-4.707259738,1.920810342,-5.36226045,7.389292507,0
81.76542812,-5.377430466,2.136048104,-3.738736878,6.88894864,0
81.77545812,-5.208912542,1.915885817,-1.436049267,5.732854946,0
81.78548712,-4.032004271,1.244333684,2.496964274,4.903086308,0
81.79551712,-4.062748346,-1.021310354,5.573999823,6.972694816,0
81.80554612,-4.848827261,-4.493074182,6.313423512,9.141015144,0
81.81557612,-4.015565409,-5.971439164,6.279714314,9.550793847,0
81.82560512,-2.845688123,-3.911082682,6.66936224,8.238622538,0
81.83563512,-2.441723582,-2.483051117,3.26172658,4.771416685,0
81.84566412,-1.139867329,-2.925843801,-5.767874783,6.567209376,0
81.85569412,-1.307314044,-1.835959641,-7.883184568,8.199049746,0
81.86572312,-3.434191667,0.01903678,-1.613184818,3.794258829,0
81.87575312,-5.101393356,1.616011362,4.152683201,6.773513465,0
81.88578212,-5.575220722,2.527787579,6.017790627,8.584089945,0
81.89581212,-5.673960314,2.67353937,5.207094058,8.15202226,0
81.90584212,-5.626890228,2.437403659,4.490210216,7.600316968,0
81.91587112,-5.301162894,1.807373773,4.140317509,6.964995123,0
81.92590112,-4.394259746,0.9227134341,3.985679705,6.003878872,0
81.93593012,-3.717214739,0.1636746758,3.762209648,5.291379428,0
81.94596012,-3.552734024,-0.58125709,3.500392381,5.021207591,0
81.95598912,-3.131757594,-1.204537534,3.522947431,4.865179842,0
81.96601912,-2.3543501,-1.284582993,3.560493572,4.457603878,0
81.97604812,-1.549979048,-1.156711403,3.522070348,4.01813338,0
81.98607812,-0.6301571352,-0.8765929359,3.549621259,3.710164993,0
81.99610712,0.2532142586,-0.5917364699,3.543535477,3.601515401,0
82.00613712,0.4578987468,-0.4143331164,3.353684571,3.410065013,0
82.01616612,0.3090265167,-0.4034479398,3.069632682,3.111416467,0
82.02619612,0.1214418817,-0.8721835506,2.486531965,2.637857746,0
82.03622612,1.34282433,-1.064180385,1.37806126,2.198797378,0
82.04625512,7.403905842,-0.5248969477,-2.637592442,7.87719699,0
82.05628512,6.514307529,-0.3143088913,-3.105153347,7.223362789,0
82.06631412,3.283606861,-0.01033203006,-1.543992376,3.628511158,0
82.07634412,1.390853945,-0.1635670871,0.496056726,1.48569888,0
82.08637312,0.6443210649,0.256012736,1.139122978,1.333526646,0
82.09640312,-0.3313858308,0.7054501963,0.838786009,1.145005903,0
82.10643212,-1.182295895,0.9203055507,1.003474592,1.803260144,0
82.11646212,-2.460121261,0.5867271602,1.660656023,3.025594785,0
82.12649112,-2.666109605,-0.08704574525,0.0889508412,2.669012859,0
82.13652112,-2.524955773,-0.1690085059,-1.283542773,2.837507283,0
82.14655112,-1.786427878,0.1321628612,-1.794208767,2.535345476,0
82.15658012,-0.8431574605,0.365902968,-1.650859598,1.889480589,0
82.16661012,-0.3907394551,0.2983495009,-1.43851153,1.520199055,0
82.17663912,0.2475275672,-0.09718423247,-2.261995375,2.277572776,0
82.18666912,1.024065781,-0.4627176565,-3.702095593,3.868892624,0
82.19669812,1.473406105,-0.5294145066,-3.541060351,3.871732645,0
82.20672812,1.470623122,-0.4482311797,-2.067170827,2.576206278,0
82.21675712,1.332811705,-0.3628635854,-0.9163475704,1.657633823,0
82.22678712,1.460391226,-0.2467817366,-0.4195470786,1.539371141,0
82.23681612,1.658888848,-0.07656870425,-0.3509557307,1.697334647,0
82.24684612,1.784480024,0.01361465693,-0.3782248787,1.82417334,0
82.25687512,2.083576945,0.01640611768,-0.6529745056,2.183560796,0
82.26690512,2.450127346,-0.0007759255171,-1.2323083,2.74257331,0
82.27693513,2.684547338,0.05679809868,-1.760368592,3.210750381,0
82.28696412,2.469580886,0.233792147,-1.707412698,3.011435977,0
82.29699413,2.129632247,0.4901609784,-1.176890217,2.482068064,0
82.30702313,2.089489942,0.5462778765,-1.079355664,2.414414294,0
82.31705313,1.815908077,0.271485638,-1.292996113,2.245677079,0
82.32708213,1.392939208,-0.1138645846,-1.604357861,2.127723884,0
82.33711213,1.252138255,-0.2119118661,-1.977188318,2.349900103,0
82.34714113,1.42478139,-0.02621131361,-2.097258845,2.535583504,0
82.35717113,1.648483289,0.1293877727,-1.817908117,2.457443443,0
82.36720117,1.754579556,0.2372221237,-1.52033995,2.333721774,0
82.37723117,1.865331375,0.3115109986,-1.664389909,2.519264577,0
82.38726017,2.097144532,0.3375556666,-1.951985211,2.884823266,0
82.39729017,2.417948218,0.14836725,-1.826663738,3.034005082,0
82.40732017,2.662531109,-0.1290129662,-1.322426757,2.975656025,0
82.41734917,2.646693633,-0.249004848,-0.62597316,2.731086414,0
82.42737917,2.48538211,-0.1954051763,-0.4156627733,2.527465718,0
82.43740817,2.223761017,-0.02046350062,-0.4432721561,2.267602703,0
82.44743817,1.86593013,0.03261693835,-0.3417362796,1.897246109,0
82.45746717,1.707024443,-0.2795659053,-0.2379267863,1.746052319,0
82.46749717,1.829956744,-0.8618795872,-0.03408641674,2.023052147,0
82.47752617,1.454034133,-1.726420827,0.1939451265,2.265470998,0
82.48755617,0.6166236084,-2.4203906,-0.004689540043,2.497706412,0
82.49758517,-0.04669308677,-2.988929996,-0.9925643454,3.149772491,0
82.50761517,-0.3869678913,-3.224629505,-2.165916851,3.903738644,0
82.51764417,-1.0005743,-3.439267927,-3.197744592,4.801591744,0
82.52767417,-1.733344954,-3.679732332,-3.867628514,5.612794766,0
82.53770417,-1.862381309,-3.404945941,-4.008883796,5.579719553,0
82.54773317,-1.986242878,-2.969961628,-4.559715484,5.792826438,0
82.55776317,-2.084076005,-2.659700764,-5.170719699,6.176870013,0
82.56779217,-2.250749279,-2.477872823,-4.877277766,5.915535855,0
82.57782217,-2.867021689,-2.146676588,-4.453172783,5.714786223,0
82.58785117,-3.488048909,-1.671341225,-3.556781759,5.25457545,0
82.59788117,-4.236710321,-1.24748124,-1.849259133,4.788077185,0
82.60791017,-4.967795588,-0.4427020526,0.02575705804,4.98754865,0
82.61794017,-5.130392037,-0.1664959574,0.1920437582,5.13668416,0
82.62796917,-5.159845047,-0.9119650823,-0.5902180941,5.272953501,0
82.63799917,-5.231073489,-1.788562111,-0.09629077792,5.52922745,0
82.64802817,-5.104670135,-2.636908903,1.849275213,6.035790302,0
82.65805817,-4.621798296,-3.387857453,3.116924669,6.523328675,0
82.66808817,-3.293744763,-3.821346048,3.834165776,6.33658168,0
82.67811717,-1.294778198,-3.642243494,4.428384389,5.878177995,0
82.68814717,0.6713505502,-2.934617549,4.442130608,5.36611741,0
82.69817617,2.362160811,-1.891390076,4.201882843,5.178125099,0
82.70820617,2.605573966,-0.3148936129,3.717193104,4.550351443,0
82.71823517,2.226588876,1.046845729,3.186519692,4.025852922,0
82.72826517,1.603971214,1.483112336,2.592022167,3.389826658,0
82.73829417,1.107879917,1.13294598,2.563840926,3.014008095,0
82.74832417,0.2237811291,0.888416006,2.275757967,2.45324995,0
82.75835317,-1.020520687,0.9393475932,1.532956342,2.067315051,0
82.76838317,-1.973224198,1.121108876,1.022678602,2.489250966,0
82.77841217,-2.417116159,1.385821685,1.024181337,2.968484408,0
82.78844217,-2.700100639,1.559303895,1.910529183,3.656787368,0
82.79847217,-2.804866079,1.947395293,2.274260495,4.102667784,0
82.80850117,-3.444813427,2.019844633,2.473686216,4.697407305,0
82.81853117,-4.496285473,2.156827354,4.237919233,6.544344636,0
82.82856017,-4.228301148,2.920204747,3.831305026,6.409760102,0
82.83859017,-2.996688959,3.860272717,1.476119651,5.104975944,0
82.84861917,-2.58880269,3.322837,0.3001136059,4.222938938,0
82.85864917,-1.142129471,2.118003012,1.641156436,2.912694789,0
82.86867817,-0.04493608983,1.021768191,3.083424509,3.24862066,0
82.87870817,-0.2606600481,0.228426742,3.406477327,3.424063407,0
82.88873717,-0.9582257675,-0.1175594401,2.903707997,3.059989702,0
82.89876717,-1.646262956,0.005980532169,2.215981296,2.760577945,0
82.90879717,-2.23033855,0.2862013257,1.619969342,2.771393497,0
82.91882617,-2.488729348,0.7112120426,1.234101934,2.867508312,0
82.92885617,-2.306622056,1.343867912,1.024597074,2.859420472,0
82.93888517,-1.891432176,1.931615412,0.8254876864,2.82667361,0
82.94891517,-1.488385648,2.164739222,0.6393670115,2.703734068,0
82.95894417,-1.109838295,1.96792779,0.3953603634,2.293641351,0
82.96897417,-0.6848128872,1.575363273,-0.4925141904,1.786983033,0
82.97900317,-0.4272017417,0.9529967487,-1.709706853,2.003447443,0
82.98903317,0.02294937126,0.3757490945,-2.146573969,2.179333353,0
82.99906217,0.2036716043,-0.2797541857,-1.9040607,1.935249771,0
83.00909217,0.5588857891,-0.5775897163,-1.501500953,1.703076133,0
83.01912117,1.186151403,-0.3935065037,-1.220362731,1.746736304,0
83.02915117,1.657513291,0.1527748811,-0.9617006215,1.922383562,0
83.03918017,1.864258703,0.6940715146,-0.9431082299,2.201510598,0
83.04921017,2.136822714,0.9698577797,-1.047143937,2.569658703,0
83.05924017,2.302365721,0.7597474408,-1.024666071,2.632117901,0
83.06926917,2.620803332,0.3114899486,-1.122704874,2.868118255,0
83.07929917,2.955789732,-0.3686236775,-1.542654241,3.354453526,0
83.08932817,3.109670906,-1.166748734,-1.878124206,3.815587279,0
83.09935817,3.121206001,-1.627036872,-1.764304937,3.937251299,0
83.10938717,3.025902233,-1.373239646,-1.551723273,3.667385521,0
83.11941717,2.704469386,-0.654827342,-1.666221403,3.243338908,0
83.12944617,2.044781546,-0.1069654548,-2.417678369,3.168239555,0
83.13947617,1.483998774,0.2068756592,-3.598122451,3.897631983,0
83.14950517,1.003375335,0.4040572196,-4.388040355,4.519394037,0
83.15953517,0.5783045384,0.5082119179,-4.185927545,4.256137323,0
83.16956517,0.09427264798,0.6018252558,-3.395448893,3.449660006,0
83.17959417,-0.3013908753,0.7887823749,-2.516191966,2.654097983,0
83.18962417,-0.5639027001,1.038316396,-1.727214879,2.092691671,0
83.19965317,-0.690543597,1.310977909,-0.9585524806,1.764748253,0
83.20968317,-0.6263867044,1.604265475,-0.1581388244,1.729461161,0
83.21971217,-0.5702429822,1.817637976,0.5201180184,1.974717099,0
83.22974217,-0.5627345726,1.849688904,0.8492528173,2.111693535,0
83.23977117,-0.3630611116,1.694570459,0.9593117416,1.980823422,0
83.24980117,-0.04273345283,1.452947136,1.018063395,1.774636471,0
83.25983017,0.03055643437,1.148684345,1.104192005,1.59362775,0
83.26986017,-0.0572788129,0.5866973394,0.980955795,1.144451354,0
83.27988917,-0.5149052622,-0.6573591864,0.362913579,0.9104695464,0
83.28991917,-1.058594101,-2.692898916,-0.1162286139,2.895830647,0
83.29994917,-0.7551861741,-4.809857615,-0.6887642893,4.917258655,0
83.30997817,1.028904206,-6.199800417,-1.919712089,6.571260426,0
83.32000817,3.074241457,-6.232558274,-2.266270713,7.309700823,0
83.33003717,3.481482193,-4.839464407,-1.332425204,6.108722529,0
83.34006717,1.906965889,-2.466670142,-2.313166698,3.882231403,0
83.35009617,-0.8132208127,0.08640489042,-2.899558521,3.012678793,0
83.36012617,-5.299442058,2.832548552,-3.027124886,6.728365515,0
83.37015512,-8.128827267,4.368312727,-2.343823504,9.521213023,0
83.38018512,-9.265861035,4.305180924,-0.6293524852,10.23654473,0
83.39021412,-10.1629929,3.579837331,0.6995091328,10.79772999,0
83.40024412,-10.10026046,2.674892415,2.35472169,10.71051003,0
83.41027312,-8.241730569,1.844745668,4.888460858,9.758394279,0
83.42030312,-6.080887347,0.9066616577,6.412061362,8.883341556,0
83.43033312,-4.056855522,0.4847411942,5.529454565,6.875166801,0
83.44036212,-2.691204393,0.49469374,4.645461978,5.391439508,0
83.45039212,-2.101918199,0.1082910186,4.285064163,4.774050894,0
83.46042112,-1.315561249,-0.4321489978,3.970874555,4.205389267,0
83.47045112,-0.4498865996,-1.117899925,3.273525091,3.488275321,0
83.48048012,0.6101573553,-1.741508982,2.178539089,2.855026812,0
83.49051012,2.498330184,-2.839481596,-0.2745430009,3.792055287,0
83.50053912,6.310393485,-4.032036431,-5.080888925,9.049520207,0
83.51056912,6.48786759,-3.053554593,-2.57946878,7.620385863,0
83.52059812,4.106240813,-1.923709391,1.843135783,4.894795292,0
83.53062812,4.283472259,-1.453965721,3.181634928,5.530366328,0
83.54065812,4.531495067,-0.4358204645,3.159213195,5.54121061,0
83.55068712,3.766802636,0.3067513651,2.587803401,4.580352054,0
83.56071712,2.62738525,0.6821209753,1.72047874,3.213796722,0
83.57074612,1.612535046,0.8407880956,1.68130488,2.476687303,0
83.58077612,1.014616023,0.722553302,1.900106521,2.271988939,0
83.59080512,-0.002939102948,0.2708845443,2.042206725,2.060095964,0
83.60083512,-1.13956437,-0.3465691495,1.896598191,2.239598586,0
83.61086412,-1.298255245,-0.2840600753,1.175421324,1.774196183,0
83.62089412,-0.8978805285,-0.048607319,-0.009036287069,0.8992406627,0
83.63092312,-0.4761180861,0.08327487588,-1.087762206,1.19031498,0
83.64095312,0.06216606192,0.05736060083,-2.027988635,2.029751897,0
83.65098212,0.2614556897,-0.2968485206,-2.182510664,2.218069188,0
83.66101212,0.2516424539,-0.4391808593,-1.836252587,1.904738122,0
83.67104212,0.6133344034,-0.03997039676,-1.591294012,1.705870263,0
83.68107112,0.9277048367,0.3689382577,-1.542213653,1.837164841,0
83.69110112,1.058816734,0.5866014451,-1.492622248,1.921747982,0
83.70113012,1.179617724,0.8339567935,-1.164513343,1.855552003,0
83.71116012,1.056581197,0.9316427171,-0.8220009917,1.630952976,0
83.72118912,0.6988041779,0.9073305792,-0.5616268176,1.275539392,0
83.73121912,0.4989354564,1.19487618,-0.2251721452,1.314293791,0
83.74124812,0.3717950611,1.283417058,-0.07418483097,1.33824299,0
83.75127812,-0.2060041317,1.225930157,-0.3459972918,1.290370714,0
83.76130712,-0.8003406391,1.243463033,-0.902318419,1.732317518,0
83.77133712,-1.175808044,0.7899535722,-1.552158013,2.101367578,0
83.78136712,-1.032178793,0.02765849948,-2.033931161,2.281016006,0
83.79139612,-0.1471539527,-0.1506166738,-2.092352008,2.102920967,0
83.80142612,0.9090382585,-0.146901353,-2.214742417,2.398544254,0
83.81145512,2.004749315,-0.1676051742,-2.772235692,3.425259413,0
83.82148512,2.992702327,-0.1318248922,-3.608018571,4.689503495,0
83.83151412,3.436131773,-0.003087914586,-4.11772036,5.363080464,0
83.84154412,3.234339099,0.1387304538,-3.676505839,4.898662136,0
83.85157312,2.46106851,0.1284639126,-2.337813297,3.396870942,0
83.86160312,1.607356752,0.07768844604,-1.009918808,1.899886108,0
83.87163212,1.034977782,-0.04733321071,-0.371774742,1.10074334,0
83.88166213,0.5344353645,-0.2303118843,-0.1945462203,0.6136065145,0
83.89169112,0.08927675039,-0.5888280648,-0.5992092115,0.8448316443,0
83.90172113,-0.3531120376,-0.8682676703,-1.139776259,1.475691966,0
83.91175113,-0.5182841854,-1.383225521,-1.708700694,2.25866983,0
83.92178013,0.4909670171,-2.532062479,-1.672510668,3.074033335,0
83.93181013,1.99588669,-4.405260113,-0.9026913983,4.919830495,0
83.94183913,3.214032303,-6.048351685,0.1316709642,6.850540051,0
83.95186913,4.246588315,-6.19672946,0.01605353057,7.512205138,0
83.96189813,4.545807297,-5.321880164,-2.190669723,7.333880711,0
83.97192813,3.490342187,-4.496616426,-4.119737649,7.026683866,0
83.98195713,1.427139426,-3.724246016,-4.997665504,6.394012497,0
83.99198713,-0.5677245864,-2.945580493,-5.288073902,6.079677725,0
84.00201613,-1.224355502,-2.510457017,-4.936078536,5.671535254,0
84.01204613,-1.372405394,-2.901780755,-5.358414152,6.24631334,0
84.02207613,-1.342613831,-2.694686995,-4.951233349,5.794709792,0
84.03210513,-0.7726468371,-1.56910032,-4.028933898,4.392193906,0
84.04213513,0.3401313651,-0.1327920216,-2.745544907,2.76971838,0
84.05216413,1.476726007,0.9090303648,-1.83068019,2.521595896,0
84.06219413,4.205357258,0.8693172455,-0.3897800732,4.311921921,0
84.07222313,5.388324414,-0.5076692963,1.745071106,5.686566738,0
84.08225313,5.307862049,-2.14464702,4.218854971,7.111374525,0
84.09228213,4.671974715,-3.220442898,7.023311745,9.029147693,0
84.10231213,3.58405902,-3.57772707,8.918708918,10.25616784,0
84.11234113,2.348291946,-3.016779115,9.440632557,10.18533133,0
84.12237113,2.03006732,-2.506621828,7.148073785,7.842147994,0
84.13240113,1.805086197,-2.291992761,7.548744882,8.092905306,0
84.14243013,0.9010203371,-0.7952096343,5.547492056,5.676166322,0
84.15246012,-0.7823586968,0.1175459915,2.703413087,2.816796853,0
84.16248913,-0.5199559774,0.2572219402,-0.5162614873,0.7765586058,0
84.17251912,0.05753620002,-0.2973309159,-1.492720189,1.523131527,0
84.18254812,-0.3055425629,-1.114940064,-0.4736899567,1.249331733,0
84.19257812,-0.4578471451,-1.226082185,1.328345017,1.864779348,0
84.20260712,0.1287441039,-0.8071981806,2.310782496,2.45109357,0
84.21263712,0.3812837765,-0.4277577388,2.513876761,2.578358076,0
84.22266612,0.2492749345,-0.06913689315,2.862069097,2.873735795,0
84.23269612,-0.2305538676,0.2967508721,3.497688628,3.517817776,0
84.24272512,-0.6719403881,0.5920837945,3.998437453,4.097507678,0
84.25275512,-1.012182923,1.069521816,3.743340975,4.022560484,0
84.26278512,-1.26359602,1.618246753,3.706876861,4.237491418,0
84.27281412,-1.606466075,1.944619035,4.071253121,4.789298322,0
84.28284412,-1.321108064,2.24676981,4.585594676,5.274559662,0
84.29287312,-1.60029507,2.45979791,4.639451332,5.489631931,0
84.30290312,-1.796153405,2.658434842,4.301480221,5.366206757,0
84.31293212,-1.591987784,2.593107995,3.948554564,4.984949079,0
84.32296212,-1.418989284,2.251913021,3.884578423,4.708990589,0
84.33299112,-1.228339503,1.899429413,3.449960438,4.12539417,0
84.34302112,-1.170646122,1.643538884,2.811852917,3.460946292,0
84.35305012,-1.125257184,1.53262422,2.249892808,2.945701678,0
84.36308012,-1.044921703,1.502833241,1.880439703,2.624199419,0
84.37310975,-0.9373566163,1.534297693,1.606780655,2.411317256,0
84.38313875,-0.8333849359,1.524521148,1.439976257,2.256596287,0
84.39316875,-0.4874382956,1.445752137,1.163089254,1.918481677,0
84.40319775,-0.2908109781,1.069962696,0.7232350874,1.323805193,0
84.41322775,-0.07599984325,0.6866057897,0.285760738,0.7475711912,0
84.42325675,0.1880802231,0.3938415492,0.01914524585,0.436865971,0
84.43328675,0.2743525279,0.3556492907,0.1234525564,0.4658285749,0
84.44331575,-0.01774812676,0.5674635082,0.357065194,0.670690228,0
84.45334575,-0.4063953019,0.9935998142,0.5497327039,1.206069558,0
84.46337475,-0.7812448753,1.390280187,0.4885921705,1.667916323,0
84.47340475,-1.146110036,1.625656344,0.2463595676,2.004250434,0
84.48343375,-1.536199061,1.833434229,0.6089825401,2.468248035,0
84.49346375,-1.810627457,1.987320666,0.7011513233,2.778385933,0
84.50349375,-2.407088184,2.06261877,0.2386543992,3.178903213,0
84.51352275,-2.823673648,2.027836023,-0.6991901672,3.54600038,0
84.52355275,-3.248230914,1.890150467,-1.289006996,3.973060771,0
84.53358175,-3.559153975,1.642443116,-1.223278153,4.106288573,0
84.54361175,-2.67427378,1.234042584,0.5433066139,2.99495967,0
84.55364075,-2.436176036,1.077635413,-1.561220905,3.087662947,0
84.56367075,-2.377988346,1.302014712,-2.427363697,3.638978621,0
84.57369975,-2.526503531,1.560345284,-2.162608789,3.673523414,0
84.58372975,-2.607478697,2.064105132,-2.56004316,4.196819764,0
84.59375875,-2.174270914,1.919809883,-2.397186509,3.762928003,0
84.60378875,-1.682869303,1.304028493,-2.168735501,3.039071088,0
84.61381775,-1.293851561,0.4658763224,-2.274446436,2.657856128,0
84.62384775,-0.6460505252,-0.0737041533,-2.628724847,2.707952715,0
84.63387775,0.05303526923,-0.1898801422,-2.566772135,2.574332225,0
84.64390675,0.9290053305,-0.1892234999,-1.838242979,2.068331136,0
84.65393675,1.646447874,-0.2346195281,-1.691461786,2.372104529,0
84.66396575,1.581363393,0.04897569358,-2.481115104,2.942624842,0
84.67399575,1.587596525,-0.08168911099,-2.447991797,2.918869589,0
84.68402475,1.200825868,-0.4506642061,-2.429362421,2.747159036,0
84.69405475,0.2600613481,-0.9646297842,-2.962725699,3.126641344,0
84.70408375,-0.1377349654,-1.992189057,-3.153913279,3.732955549,0
84.71411375,-0.4759097059,-2.460152836,-2.258973826,3.373693047,0
84.72414275,-1.234143741,-2.494406995,0.6177866927,2.85076085,0
84.73417275,-2.556310005,-1.516419246,3.56908547,4.644633383,0
84.74420275,-2.611558884,-0.8588168156,5.33966447,6.005815746,0
84.75423175,-2.295091493,-0.7612069058,5.643132623,6.139366964,0
84.76426175,-1.629994978,-0.8085985887,5.478061048,5.772336455,0
84.77429075,-1.073215429,-0.7778124136,4.879603204,5.056412852,0
84.78432075,-0.5218514255,-0.7793496466,4.490093272,4.587009088,0
84.79434975,0.9400657775,-0.534233197,4.829234118,4.94880096,0
84.80437975,2.022985173,-0.6026906437,5.415826793,5.812648697,0
84.81440875,2.50563014,-0.8495466399,5.855680082,6.425644023,0
84.82443875,2.354794488,-1.097974368,6.432249459,6.937177949,0
84.83446775,1.836691128,-1.651875844,7.034421455,7.455549162,0
84.84449775,1.5204414,-2.721676573,6.486103485,7.196443832,0
84.85452775,1.409870698,-3.791775509,5.414270264,6.758669942,0
84.86455675,1.406683088,-4.471157064,3.974619112,6.145534955,0
84.87458675,1.865825465,-4.393436458,-0.1373265191,4.775190797,0
84.88461575,1.471671674,-3.38560569,-6.359320647,7.353169554,0
84.89464575,-0.05510540284,-1.980012816,-6.676585305,6.964214148,0
84.90467475,-1.348505339,-0.7793742049,-2.049635612,2.574276004,0
84.91470475,-2.040218087,-0.3116302818,2.048833959,2.908147841,0
84.92473375,-2.17457073,-0.2057471466,3.404126161,4.044646421,0
84.93476375,-2.74860417,-0.159533093,3.194091251,4.216929524,0
84.94479275,-3.028999211,-0.5671524364,2.233418278,3.805871163,0
84.95482275,-2.577352965,-0.9161370707,0.6963729787,2.822585829,0
84.96485175,-1.776767985,-0.7679616094,-0.9727106363,2.166295337,0
84.97488175,-0.9053738815,-0.3204665941,-1.405577087,1.702365311,0
84.98491175,-0.4312154167,0.3366025704,-0.4222730505,0.69105901,0
84.99494075,-0.1881557252,0.8343707764,0.508734659,0.995182457,0
85.00497075,-0.02095108531,0.7752554262,0.7382291025,1.07072038,0
85.01499975,0.3898870041,0.7198138815,0.7670722479,1.121848356,0
85.02502975,0.9656589673,0.9153155369,0.5088170316,1.424497997,0
85.03505875,1.565271564,1.346840637,0.1959502099,2.074235101,0
85.04508875,1.918396026,1.692188303,-0.1179968119,2.560794372,0
85.05511775,1.772267968,1.820649292,-0.2946920675,2.557839129,0
85.06514775,1.754887558,1.613708144,-0.2519080637,2.397319751,0
85.07517675,1.734000573,1.184963395,0.1245883781,2.103905534,0
85.08520675,1.492428851,0.8035723221,0.6389060316,1.811428516,0
85.09523675,0.795017334,0.6876699829,0.9625937106,1.425317234,0
85.10526575,0.07117720596,0.7457603163,0.7285034287,1.044960233,0
85.11529575,-0.3788962121,0.7681452119,0.3804783225,0.9372156423,0
85.12532475,-0.5714350102,0.7263750422,0.08459634662,0.9280706949,0
85.13535475,-0.5625565249,0.5422848129,-0.3019566482,0.8376875786,0
85.14538375,-0.3654766329,0.2414356273,-0.8979440439,0.9990834987,0
85.15541375,-0.2093297356,-0.07485430062,-1.807679583,1.821298322,0
85.16544275,-0.1041503128,-0.30432594,-2.702466715,2.721541459,0
85.17547275,0.1545085806,-0.3662128705,-3.070683426,3.096301257,0
85.18550175,0.5903942415,-0.4331278217,-2.85130642,2.943826315,0
85.19553175,1.157960515,-0.5879930824,-2.333253784,2.67033362,0
85.20556175,1.889413864,-0.7380162638,-1.866520114,2.75652863,0
85.21559075,2.67901441,-0.9205037713,-1.580109897,3.243638803,0
85.22562075,3.345367784,-1.119448267,-1.399026598,3.794986884,0
85.23564975,3.717332268,-1.389115421,-1.278090245,4.169138462,0
85.24567975,3.86401435,-1.630756286,-1.191566363,4.360023321,0
85.25570875,3.478359488,-1.799705735,-1.258478829,4.113598719,0
5.028458667,-0.1154972003,0.6973550186,-0.6239663225,0.9428560849,0
5.038488667,-0.05992869794,0.7089541402,-0.605527128,0.9342754008,0
5.048518667,0.03756503496,0.7010223922,-0.4496310031,0.8336735364,0
5.058548667,-0.0136916209,0.6788678768,-0.4072977465,0.7917957496,0
5.068578667,-0.009135251194,0.6172396857,-0.3668016851,0.7180611106,0
5.078608667,0.09389330987,0.5700038311,-0.129469049,0.5920156719,0
5.088638667,0.1832127084,0.5280310553,0.0700274241,0.5632828171,0
5.098668667,0.1415289678,0.4887096995,-0.08318307459,0.5155453841,0
5.108698667,0.1181635671,0.4506832096,-0.3203964275,0.5654483661,0
5.118728667,0.1743853496,0.4373278767,-0.373333025,0.6008689287,0
5.128758667,0.1468359007,0.445262256,-0.4446053213,0.6461370985,0
5.138788667,0.1103397002,0.4349261329,-0.5469637549,0.7074637373,0
5.148818667,0.194347817,0.3645206863,-0.2997534174,0.5103905523,0
5.158848667,0.2770088083,0.3356594145,0.03845421374,0.4368979846,0
5.168878667,0.3389862244,0.3505777082,0.1712433118,0.5168565194,0
5.178908667,0.3317807371,0.370716396,0.2447118223,0.55443032,0
5.188938667,0.3577247233,0.3769957209,0.2876485115,0.5939986679,0
5.198967667,0.47126201,0.4435197857,0.4207030731,0.7718735377,0
5.208997667,0.4425520715,0.476203967,0.4155048984,0.7715354009,0
5.219027667,0.2667726726,0.5645246977,0.1555686808,0.6434729268,0
5.229057667,0.03518167332,0.6867279965,-0.1043154967,0.6954960921,0
5.239087667,-0.1652025167,0.7313305575,-0.2696028346,0.7967571426,0
5.249117667,-0.255230342,0.6349561644,-0.1745955205,0.7062545249,0
5.259147667,-0.2758290229,0.5229831541,0.1821431065,0.6186833928,0
5.269177667,-0.2758813189,0.3780034885,0.5910792428,0.7539043777,0
5.279207667,-0.1810235839,0.2124571189,1.123945946,1.158085512,0
5.289237375,-0.1057378684,0.03606650323,1.876686083,1.880008496,0
5.299267375,-0.12707688,-0.2247640461,2.533638303,2.546760778,0
5.309297375,-0.1859123679,-0.5799975997,2.983702585,3.045232625,0
5.319327375,-0.3096300955,-0.9382138181,3.272297761,3.418193763,0
5.329357375,-0.5198087007,-1.237819886,3.286411185,3.550056004,0
5.339387375,-0.7777424663,-1.39065704,2.832703503,3.25007992,0
5.349417375,-0.9601292554,-1.394659459,2.161023316,2.745349698,0
5.359447375,-0.9738531091,-1.308920859,1.509630044,2.222756523,0
5.369476375,-0.8654235846,-1.220841618,1.019856736,1.810944505,0
5.379506375,-0.8192402288,-1.159532685,0.5877773201,1.536604301,0
5.389536375,-0.8814586233,-1.150855124,0.1985223269,1.463163674,0
5.399566375,-1.02654712,-1.171792249,-0.07496949077,1.559652683,0
5.409596375,-1.233695552,-1.263279832,-0.29390971,1.790045688,0
5.419626375,-1.375267753,-1.359774093,-0.4537649846,1.986516961,0
5.429656375,-1.498319775,-1.407519825,-0.6144078791,2.145593449,0
5.439686375,-1.552194558,-1.401581393,-0.8565001488,2.259940453,0
5.449716375,-1.537361634,-1.325154483,-1.162845717,2.339171939,0
5.459746375,-1.510037887,-1.216771371,-1.538819345,2.475623551,0
5.469776375,-1.516974147,-1.091495945,-1.888251876,2.656702676,0
5.479806375,-1.551276107,-0.9375615612,-2.0837968,2.761826994,0
5.489836375,-1.553609292,-0.8204503101,-1.973414817,2.642197302,0
5.499866375,-1.466393977,-0.7603283617,-1.536721948,2.256086182,0
5.509896375,-1.291975481,-0.7271410275,-0.8505675638,1.709210314,0
5.519925375,-1.106847006,-0.7310615855,-0.1527076381,1.335245655,0
5.529955375,-1.036244727,-0.8679978213,0.3433040643,1.39466162,0
5.539985375,-0.8467507938,-0.8506029394,0.7794414479,1.431097913,0
5.550015375,-0.7994636299,-0.8167788434,1.230379304,1.679316232,0
5.560045375,-0.794205375,-0.8728641665,1.54287205,1.942449019,0
5.570075375,-0.7482794429,-0.8624970531,1.630975556,1.990955689,0
5.580105375,-0.8122069055,-0.7716971031,1.477480298,1.854223425,0
5.590135375,-0.9417779884,-0.6581263411,1.022741752,1.538205692,0
5.600165375,-1.064176146,-0.5135238209,0.4895435125,1.27899587,0
5.610195375,-1.195227013,-0.3431833193,0.04226309001,1.244238149,0
5.620225375,-1.263500564,-0.2241848794,-0.2602344257,1.309356519,0
5.630255375,-1.22378993,-0.192160264,-0.3619958586,1.290592252,0
5.640285375,-1.061852316,-0.1649207175,-0.2269848186,1.09829472,0
5.650315375,-0.8661863539,-0.09900183946,-0.07322351217,0.8748953346,0
5.660345375,-0.6600097293,-0.05418760926,0.004342727065,0.662244667,0
5.670375375,-0.4600068873,-0.04156434774,0.1141230315,0.4757709509,0
5.680404375,-0.399685695,-0.08645283759,0.09189250231,0.4191264486,0
5.690434375,-0.4269790359,-0.1304043111,-0.1371850348,0.4670504418,0
5.700464375,-0.4420366395,-0.1062231508,-0.3658339709,0.5835359823,0
5.710494375,-0.439228368,-0.08259250581,-0.478494029,0.654751569,0
5.720524375,-0.4264839229,-0.04396492213,-0.4307380646,0.6077472593,0
5.730554375,-0.4049743554,0.03253741622,-0.5052222365,0.6483150625,0
5.740584375,-0.4334244217,0.1410170075,-0.6974471122,0.833171651,0
5.750614375,-0.5617823535,0.1976662946,-0.8968254715,1.076553437,0
5.760644375,-0.6377613661,0.183543807,-0.98151245,1.184818374,0
5.770674375,-0.5115369371,0.2105903953,-0.7058688569,0.8968105685,0
5.780704375,-0.3522753011,0.2665163818,-0.3307372284,0.5518296692,0
5.790734375,-0.2519217315,0.2760841808,-0.007728264928,0.373827179,0
5.800764375,-0.1406468788,0.3245388874,0.2532399863,0.4350143959,0
5.810794375,0.004848365039,0.4069226477,0.4098173118,0.5775463417,0
5.820824375,0.05523265287,0.4352029985,0.5735218084,0.7220661746,0
5.830854375,0.06231611609,0.4690130612,0.6423312575,0.7977756541,0
5.840883375,0.07078522325,0.534748629,0.6504653192,0.8450276774,0
5.850913375,0.02910056904,0.587829068,0.6422008646,0.8710980466,0
5.860943375,0.03096714646,0.686382426,0.6037372953,0.9146466644,0
5.870973375,0.02547120228,0.772547873,0.4874847078,0.9138491881,0
5.881003375,-0.02421039641,0.8011998144,0.2966269112,0.8546898913,0
5.891033375,-0.1533289048,0.7743587556,0.03391385078,0.7901211203,0
5.901063375,-0.3040036123,0.7492528582,-0.1360623693,0.8199457361,0
5.911093375,-0.3485384917,0.7725461188,-0.1014269722,0.8535771884,0
5.921123375,-0.407245414,0.8066923964,0.02000332475,0.9038813985,0
5.931153375,-0.4346162304,0.7401852885,0.0599409771,0.8604408462,0
5.941183375,-0.5337779912,0.7180945078,0.165224188,0.909877848,0
5.951213375,-0.6480308309,0.6410179728,0.1598734009,0.9254228783,0
5.961243375,-0.8059772819,0.5722740126,0.1708240664,1.003133982,0
5.971273375,-0.9839631642,0.5184115085,0.201250053,1.130236959,0
5.981303375,-1.104068336,0.4307690549,0.2087099308,1.203365574,0
5.991332375,-1.183177948,0.3499196041,0.263955009,1.261755139,0
6.001362375,-1.302735235,0.2898371243,0.4183542466,1.398622511,0
6.011392375,-1.312783529,0.292694951,0.7559718937,1.542907785,0
6.021422375,-1.238643174,0.2988409594,1.048817995,1.650321792,0
6.031452375,-1.210073678,0.3690367833,1.234455398,1.767582129,0
6.041482375,-0.8995613837,0.6033955255,1.288060917,1.682972896,0
6.051512375,-0.4418072824,0.8246056339,1.357929881,1.648982016,0
6.061542375,-0.04362432182,1.014839533,1.41966303,1.745636124,0
6.071572375,0.215358215,1.103805211,1.573910825,1.934414741,0
6.081602375,0.2804861109,1.077096007,1.714166232,2.043813626,0
6.091632375,0.1631082268,0.9297973359,1.836098805,2.064554722,0
6.101662375,-0.03692779809,0.7076882181,1.919435077,2.046073628,0
6.111692375,-0.2934976275,0.4546739343,1.975892283,2.04866287,0
6.121722375,-0.624732454,0.2196234664,1.911341946,2.022808231,0
6.131751375,-0.8195890152,0.002747021914,1.793891264,1.972252409,0
6.141781375,-0.9128823642,-0.175605627,1.787540018,2.014817824,0
6.151811375,-0.9248261793,-0.3646542951,1.801986149,2.058016107,0
6.161841375,-0.8362839854,-0.5021106407,1.780088326,2.02982769,0
6.171871375,-0.7966775778,-0.6191107947,1.531346603,1.833852709,0
6.181901375,-0.8283896595,-0.7389854398,1.04108973,1.521905626,0
6.191931375,-0.8620311762,-0.8149875489,0.4638993788,1.273775917,0
6.201961375,-0.9127481706,-0.8457020956,-0.1046365088,1.248707354,0
6.211991375,-0.9433669692,-0.8951923442,-0.6116216809,1.437147053,0
6.222021375,-1.010565949,-0.8973356411,-1.090158395,1.736346773,0
6.232051375,-1.055222743,-0.8662033108,-1.442866536,1.986370321,0
6.242081375,-1.064267508,-0.7944091505,-1.707565895,2.163222715,0
6.252111375,-1.064783087,-0.7148183128,-1.899172136,2.29163327,0
6.262141375,-1.029811036,-0.6671424553,-1.884491531,2.248754801,0
6.272170375,-0.9431509146,-0.6844095755,-1.708054138,2.067703812,0
6.282200375,-0.7842345567,-0.7979432076,-1.429310351,1.815121286,0
6.292230625,-0.5938790359,-0.9008156115,-1.01996374,1.48475153,0
6.302260625,-0.5081686485,-0.9856721592,-0.7096742249,1.316595035,0
6.312290625,-0.4540626079,-1.106165147,-0.5447020519,1.31395377,0
6.322320625,-0.3853104615,-1.220943359,-0.261143083,1.306660839,0
6.332350625,-0.2993954216,-1.271891026,0.1036062294,1.310754993,0
6.342380625,-0.1743679176,-1.279131634,0.4676030052,1.373038411,0
6.352410625,-0.03403357252,-1.296979967,0.8649903059,1.559334329,0
6.362440625,0.08887723938,-1.31607405,1.229233834,1.803043507,0
6.372470625,0.1256034547,-1.31419914,1.470364822,1.976073965,0
6.382500625,0.1025392587,-1.283740994,1.574993729,2.034480397,0
6.392530625,0.1058423509,-1.225724628,1.512333797,1.94955302,0
6.402560625,0.02512431622,-1.175471902,1.331521516,1.776320628,0
6.412589625,-0.01581978813,-1.104295208,1.164353129,1.604816619,0
6.422619625,-0.03156648606,-0.9647037515,0.872361306,1.301024219,0
6.432649625,-0.06448338658,-0.8593959823,0.4830361462,0.9879491283,0
6.442679625,-0.1682853515,-0.7833696073,0.1368687004,0.8128474287,0
6.452709625,-0.2702191311,-0.7366249189,-0.1377861285,0.7966301947,0
6.462739625,-0.3720111157,-0.7301479581,-0.3425924581,0.8881879887,0
6.472769625,-0.4829249029,-0.7200597569,-0.4467570966,0.9753432313,0
6.482799625,-0.4936362711,-0.6529530171,-0.4757212794,0.9467497802,0
6.492829625,-0.3504315278,-0.5629409793,-0.3174435836,0.7351702052,0
6.502859625,-0.4261691965,-0.5144190297,-0.2014681542,0.6977367263,0
6.512889625,-0.5750167952,-0.5233512363,-0.2741566461,0.8244408396,0
6.522919625,-0.6757957497,-0.5331514621,-0.3729681587,0.9381127993,0
6.532949625,-0.7157753558,-0.5091562432,-0.4561576653,0.989774851,0
6.542978625,-0.76691028,-0.4569441158,-0.4518979686,1.00058037,0
6.553008625,-0.7653802098,-0.3539164683,-0.3959249121,0.9315687136,0
6.563038625,-0.5401643202,-0.2411049673,-0.1998163158,0.6243682071,0
6.573068625,-0.2969511393,-0.1467291525,0.07404621542,0.3393998605,0
6.583098625,-0.188095572,-0.05248051465,0.1171361017,0.2277169624,0
6.593128625,-0.06563543424,0.0324488309,0.08116695464,0.1093115336,0
6.603158625,0.03887652889,0.1019558528,0.1241188467,0.1652630283,0
6.613188625,0.1933991428,0.09833905756,0.2526710522,0.3330412276,0
6.623218625,0.2024946329,0.04941481948,0.3569046879,0.4133120576,0
6.633248625,0.1878023341,0.02110084713,0.3163752973,0.3685217649,0
6.643278625,0.2514146318,0.004471950531,0.3649048483,0.4431533185,0
6.653308625,0.3571743907,-0.1156909624,0.4830361462,0.611785798,0
6.663338625,0.3214025871,-0.300650965,0.5343366927,0.6922473019,0
6.673368625,0.2149136804,-0.4004930493,0.4905696988,0.6687609453,0
6.683397625,0.2109643248,-0.4678363091,0.3810612899,0.639206121,0
6.693427625,0.3256022036,-0.4884056443,0.2899996769,0.6547187801,0
6.703457625,0.5032669276,-0.5095956615,0.3323183155,0.7895573452,0
6.713487625,0.6247999893,-0.4945338187,0.2536674178,0.8362331513,0
6.723517625,0.698394215,-0.4676553378,0.132274543,0.8508540117,0
6.733547625,0.7411288829,-0.4484305698,0.07003444076,0.8690608839,0
6.743577625,0.7666391154,-0.4511150265,0.08253812671,0.8933380338,0
6.753607625,0.6996269542,-0.5012376514,0.02707026958,0.861074827,0
6.763637625,0.6337506147,-0.4242403463,-0.1670420873,0.7807193938,0
6.773667625,0.5465411474,-0.1997958505,-0.4423436183,0.7309538182,0
6.783697625,0.5006795347,0.03638751537,-0.7295301998,0.8855610426,0
6.793727625,0.5250653476,0.2456801212,-1.012340725,1.166570223,0
6.803757625,0.5339268029,0.4176008329,-1.24398519,1.416674782,0
6.813787625,0.5727065603,0.564364484,-1.429710301,1.640296198,0
6.823816625,0.5742692287,0.7232447353,-1.521972347,1.780243781,0
6.833846625,0.5623517261,0.833169466,-1.542353987,1.840996101,0
6.843876625,0.5738963225,0.924157404,-1.588593768,1.925371148,0
6.853906625,0.5356105086,0.937965019,-1.622576031,1.949207524,0
6.863936625,0.3671675746,0.9409210789,-1.582718486,1.877536234,0
6.873966625,0.3111214279,1.065696568,-1.491685524,1.859470737,0
6.883996625,0.3766163827,1.232567624,-1.335858981,1.856227913,0
6.894026625,0.5243363459,1.363099697,-1.037233492,1.791318705,0
6.904056625,0.6241513869,1.413467613,-0.575637331,1.648882647,0
6.914086625,0.642843035,1.387287289,0.02244453728,1.529155632,0
6.924116625,0.5853342073,1.309961078,0.5407657063,1.533310702,0
6.934146625,0.4311422534,1.205656691,1.003846475,1.627021649,0
6.944175625,0.1609772091,1.049190755,1.399882484,1.75681128,0
6.954205625,-0.1059820993,0.8528915396,1.763730741,1.961989375,0
6.964235625,-0.2303629012,0.7313542387,2.015130608,2.156083824,0
6.974265625,-0.3232584934,0.6422453034,1.914438046,2.045005652,0
6.984295625,-0.4697585812,0.5279369152,1.496773771,1.655210631,0
6.994325625,-0.5739324291,0.4790729034,0.9848079407,1.236428712,0
7.004355625,-0.6524868478,0.4383528936,0.6937861705,1.048442462,0
7.014385625,-0.8164768347,0.3340511379,0.6737126791,1.110006017,0
7.024415625,-0.9388919489,0.1647529024,0.7835660738,1.233951945,0
7.034445625,-1.076495937,-0.08686331213,0.9709056008,1.452255633,0
7.044475625,-1.250184115,-0.3724696836,1.133301491,1.728023801,0
7.054505625,-1.465586038,-0.6904643673,1.188859395,2.009494996,0
7.064535625,-1.612337556,-1.007020344,1.260456796,2.280893181,0
7.074564625,-1.600696335,-1.26481648,1.373350743,2.459284804,0
7.084594625,-1.448856131,-1.407149988,1.387874642,2.450602212,0
7.094624625,-1.27351743,-1.512984299,1.321394139,2.378455508,0
7.104654625,-1.128083143,-1.636565202,1.033809947,2.240464292,0
7.114684625,-1.019602748,-1.687125491,0.5386677253,2.043561867,0
7.124714625,-0.9451392603,-1.638855557,-0.03358114421,1.89215841,0
7.134744625,-0.8414138208,-1.499757313,-0.5459825921,1.804257799,0
7.144774625,-0.6315644869,-1.37584078,-0.8136804038,1.718687683,0
7.154804625,-0.4414635392,-1.306469121,-0.8849831057,1.638580702,0
7.164834625,-0.39527821,-1.280513038,-0.8200486064,1.571126418,0
7.174864625,-0.3752420678,-1.300925083,-0.5016226906,1.443896813,0
7.184894625,-0.3585880282,-1.377408126,-0.03775956452,1.42382032,0
7.194924625,-0.4895426354,-1.482827869,0.2993183845,1.589975464,0
7.204953625,-0.6557316139,-1.602361914,0.3718753141,1.770830004,0
7.214983625,-0.8084904883,-1.655319562,0.3637131858,1.877771819,0
7.225013625,-0.9213173383,-1.595354611,0.1042558551,1.845223904,0
7.235043625,-1.030002313,-1.473926068,-0.5025886506,1.867072085,0
7.245073625,-1.153872141,-1.312436497,-1.13997024,2.086490504,0
7.255103625,-1.202865377,-1.120677352,-1.555721891,2.263420739,0
7.265133625,-1.201839629,-0.9232712585,-1.769252851,2.329614552,0
7.275163625,-1.24804345,-0.7592439955,-2.070341772,2.533846671,0
7.285193625,-1.202448105,-0.5253743729,-2.013719675,2.40353211,0
7.295224042,-1.050895438,-0.4172830367,-1.532349401,1.904363684,0
7.305254042,-0.7640892177,-0.4119237712,-0.7201313853,1.12787532,0
7.315284042,-0.5842373427,-0.4109449473,0.1962156004,0.7407493396,0
7.325313042,-0.5138084342,-0.4172675416,1.108625656,1.291186335,0
7.335343042,-0.5068834305,-0.5523528412,2.08951947,2.219936055,0
7.345373042,-0.4835461695,-0.8045075843,3.027808133,3.169963949,0
7.355403042,-0.3719093741,-0.9560986966,3.751726175,3.889458907,0
7.365433042,-0.214980631,-1.005916097,3.920023075,4.052735468,0
7.375463042,-0.1155972607,-0.9717303506,3.434986011,3.571659488,0
7.385493042,-0.1566499771,-0.8511227569,2.314051382,2.470583526,0
7.395523042,-0.2646273657,-0.7070842007,1.070201263,1.30970472,0
7.405553042,-0.3314223028,-0.5915592992,0.1418669003,0.6927549095,0
7.415583042,-0.3979367197,-0.5076859608,-0.6770853531,0.935170168,0
7.425613042,-0.5126074892,-0.4332319021,-1.431487269,1.581016167,0
7.435643042,-0.6678706529,-0.2788791499,-2.044159695,2.168504934,0
7.445672042,-0.7920764038,-0.1757860136,-2.368680748,2.503783984,0
7.455702042,-0.8802362629,-0.08123975247,-2.374215723,2.533439574,0
7.465732042,-0.8459248745,0.01397396833,-2.132606433,2.29429605,0
7.475762042,-0.7703466155,0.0431846112,-1.690417766,1.858174115,0
7.485792042,-0.7282521446,0.01661574036,-1.213434657,1.41529182,0
7.495822042,-0.6530401406,0.05276176572,-0.7973234028,1.031973758,0
7.505852042,-0.5906532001,0.09537042618,-0.5178639168,0.7912962512,0
7.515882042,-0.5398952021,0.1389573258,-0.2841746807,0.6257405347,0
7.525912042,-0.4688500701,0.2091540268,0.0100349915,0.5134846601,0
7.535942042,-0.4185678162,0.2814291206,0.3905267626,0.6378969501,0
7.545972042,-0.2810706132,0.2883194795,0.8180196226,0.9117482738,0
7.556002042,-0.2043913235,0.2878432238,1.258374018,1.306956275,0
7.566031042,-0.190872634,0.277776365,1.489955918,1.527599656,0
7.576061042,-0.2199298605,0.2242538765,1.436950323,1.470879049,0
7.586091042,-0.2386638279,0.1847468716,1.275413974,1.310638255,0
7.596121042,-0.2178449627,0.1926479217,1.068272851,1.107147928,0
7.606151042,-0.2003204919,0.2229201266,0.63862997,0.7054572424,0
7.616181042,-0.2435743196,0.2588840112,0.1553722143,0.3879302842,0
7.626211042,-0.3393050804,0.2603864533,-0.1799650186,0.4640220367,0
7.636241042,-0.429948252,0.2720513561,-0.4855703294,0.7033107312,0
7.646271042,-0.4420958425,0.3436873493,-0.8204468018,0.9933290908,0
7.656301042,-0.5507762857,0.3690780061,-1.079378468,1.266740292,0
7.666331042,-0.727985073,0.4175154635,-1.272423708,1.524251791,0
7.676361042,-0.8537815589,0.5024977264,-1.347076864,1.672143234,0
7.686390042,-0.9421145687,0.5420272431,-1.245837003,1.653324902,0
7.696420042,-0.9810076891,0.5217435443,-0.9590544641,1.467779914,0
7.706450042,-0.9561830427,0.5386227018,-0.6577310693,1.279457145,0
7.716480042,-0.8555379163,0.5969068703,-0.2793536514,1.079945092,0
7.726510042,-0.6552667603,0.6216022933,0.1910536784,0.9231822389,0
7.736540042,-0.5075286707,0.6254915687,0.6273115146,1.020952884,0
7.746570042,-0.4009561488,0.6175566047,1.048835537,1.281482726,0
7.756600042,-0.2930891995,0.595093064,1.484264238,1.625754398,0
7.766630042,-0.1915052296,0.5943823349,1.839856811,1.942945624,0
7.776660042,-0.1223781306,0.549652597,2.080590772,2.155447133,0
7.786690042,-0.06722412273,0.5453589866,2.170742558,2.239209405,0
7.796720042,-0.04615996689,0.5022150135,2.03897263,2.100419017,0
7.806749042,-0.1141392575,0.460308896,1.689795038,1.755083849,0
7.816779042,-0.2581500395,0.4337879723,1.261286516,1.35854964,0
7.826809042,-0.3511276388,0.4090846556,0.8355460668,0.9943732216,0
7.836839042,-0.4451355176,0.3623139471,0.4888213813,0.7538987784,0
7.846869042,-0.5145776354,0.3287079522,0.2418104339,0.6567429837,0
7.856899042,-0.5687588127,0.2974458137,-0.01313576996,0.6419759712,0
7.866929042,-0.611942693,0.3003980729,-0.243998462,0.7240497988,0
7.876959042,-0.6286530121,0.3403617454,-0.5041896182,0.8747902025,0
7.886989042,-0.6544421567,0.3779613885,-0.7912575012,1.094183614,0
7.897019042,-0.667753197,0.4576525059,-1.040588039,1.318394332,0
7.907049042,-0.6480140202,0.6119342145,-1.228870137,1.51806043,0
7.917078042,-0.5835173312,0.7430460387,-1.362253897,1.657813491,0
7.927108042,-0.4932914315,0.8602651709,-1.401841886,1.717135194,0
7.937138042,-0.3731643328,0.9974762258,-1.31222512,1.690013375,0
7.947168042,-0.1886747387,1.102269732,-1.030850086,1.520936757,0
7.957198042,-0.06600117758,1.134382933,-0.5935496914,1.281983631,0
7.967228042,0.02162227258,1.172456493,-0.2203575844,1.193180295,0
7.977258042,0.06525755793,1.142481327,0.06663486958,1.146281962,0
7.987288042,0.02955592096,0.9155710602,0.5991706198,1.094600087,0
7.997318042,-0.2389543614,0.6327456245,0.9685895187,1.181368642,0
8.007348042,-0.6178641683,0.4024156138,1.301124766,1.495533387,0
8.017378042,-0.9552162056,0.2246712215,1.877004172,2.118032062,0
8.027407042,-1.030842923,0.07479787499,2.539267418,2.741552639,0
8.037437042,-0.9430018106,-0.03861954376,3.034819529,3.178187134,0
8.047467042,-0.6203887036,-0.2414211555,3.427505084,3.491555157,0
8.057497042,-0.4240932888,-0.4110965364,3.565857807,3.614442887,0
8.067527042,-0.6513172585,-0.1858728991,3.193794213,3.264825322,0
8.077557042,-0.6540451308,-0.1107968429,3.026969057,3.098805035,0
8.087587042,-0.4501758175,-0.1415527587,2.559174263,2.602319804,0
8.097617042,-0.3230713825,-0.1391191475,1.271287009,1.319052658,0
8.107647042,-0.200859459,-0.1550876011,1.173964198,1.201078109,0
8.117677042,-0.1310998374,-0.3088448144,1.903231857,1.932579569,0
8.127707042,-0.07563490391,-0.5808318512,1.879323762,1.968487765,0
8.137736042,-0.2575906071,-0.7662530529,1.33964213,1.56465258,0
8.147766042,-0.5353804207,-0.8387351382,0.7768569785,1.262384883,0
8.157796042,-0.6510459477,-0.8752600631,0.1457956445,1.100544126,0
8.167826042,-0.6294624129,-0.9627028343,-0.4813965869,1.246901099,0
8.177856042,-0.6045860186,-0.9812779766,-0.9493574417,1.493221442,0
8.187886042,-0.6308987814,-1.041821802,-1.223192491,1.726159265,0
8.197916042,-0.729426704,-1.140320781,-1.261051458,1.850039345,0
8.207946042,-0.9060284042,-1.299901236,-1.201984055,1.98881783,0
8.217976042,-1.029666317,-1.486789358,-1.151993285,2.144258345,0
8.228006042,-1.116327608,-1.639508691,-1.217697278,2.327436945,0
8.238036042,-1.191160859,-1.732652497,-1.40154017,2.526907935,0
8.248066042,-1.244823973,-1.712648295,-1.580183133,2.641917796,0
8.258095042,-1.182457278,-1.625903389,-1.745200914,2.66223464,0
8.268125042,-1.090933443,-1.583903131,-1.814531935,2.644127654,0
8.278155042,-1.072663233,-1.541382179,-1.779224693,2.586910501,0
8.288185042,-1.072517637,-1.488776827,-1.638389241,2.459892239,0
8.298214625,-0.9625011054,-1.427635416,-1.24469972,2.124577288,0
8.308244625,-0.8882087222,-1.417329991,-0.6481170774,1.79382128,0
8.318274625,-0.8885385051,-1.460512848,-0.1640822268,1.717417081,0
8.328304625,-0.8382273075,-1.478707044,0.2711646259,1.721258201,0
8.338334625,-0.8661609185,-1.557650595,0.8486028993,1.97399012,0
8.348364625,-1.005054802,-1.655619231,1.515961994,2.459542836,0
8.358393625,-1.08918571,-1.68614579,1.973695484,2.815117582,0
8.368423625,-1.128302414,-1.630050234,2.130623057,2.910272275,0
8.378453625,-1.179143954,-1.596335774,1.992279105,2.812088974,0
8.388483625,-1.206115113,-1.503415331,1.367476045,2.363252432,0
8.398513625,-1.259292031,-1.33980936,0.4765135771,1.899465906,0
8.408543625,-1.264568266,-1.140330428,-0.06979412019,1.704217593,0
8.418573625,-1.192242886,-1.030466801,-0.3363628346,1.611348778,0
8.428603625,-1.182378049,-0.9418826535,-0.6177688587,1.633033725,0
8.438633625,-1.220179713,-0.8570038864,-0.8090564257,1.696427568,0
8.448663625,-1.264970554,-0.7807597026,-0.8907531381,1.732967792,0
8.458693625,-1.283493364,-0.7443178082,-0.8585905284,1.71421758,0
8.468723625,-1.156936229,-0.6412325656,-0.6372389174,1.468248643,0
8.478752625,-0.9895123181,-0.492666218,-0.4845418042,1.206911509,0
8.488782625,-0.7558917868,-0.3055690581,-0.5142854208,0.9639680164,0
8.498812625,-0.5490801546,-0.1422095472,-0.4735221416,0.7388746782,0
8.508842625,-0.3283199894,0.07068231225,-0.3160338199,0.4611587363,0
8.518872625,-0.03606036365,0.2181993771,0.09246436,0.2397101914,0
