Time (s),Linear Acceleration x (m/s^2),Linear Acceleration y (m/s^2),Linear Acceleration z (m/s^2),Absolute acceleration (m/s^2),label
0.00344,0.151,-0.858,-0.0666,0.874,0
0.0135,0.396,-1.31,-0.643,1.52,0
0.0235,0.385,-1.55,-1.41,2.13,0
0.0335,0.263,-1.23,-1.95,2.32,0
0.0435,0.459,-0.712,-2.15,2.31,0
0.0535,0.857,-0.134,-2.14,2.31,0
0.0635,1.49,0.22,-2.2,2.67,0
0.0735,1.96,0.151,-2.24,2.98,0
0.0835,2.03,0.0132,-1.91,2.79,0
0.0935,1.6,-0.28,-1.48,2.19,0
0.104,0.81,-0.681,-1.35,1.71,0
0.114,0.32,-1.12,-1.19,1.67,0
0.124,-0.0001,-1.34,-0.904,1.61,0
0.134,-0.242,-1.09,-0.664,1.3,0
0.144,-0.0576,-0.616,-0.868,1.07,0
0.154,0.511,-0.208,-1.56,1.66,0
0.164,0.867,0.0246,-2.48,2.63,0
0.174,0.389,0.271,-3.24,3.27,0
0.184,-0.285,0.477,-3.67,3.71,0
0.194,-0.641,0.528,-3.35,3.46,0
0.204,-0.717,0.523,-2.5,2.66,0
0.214,-0.566,0.344,-1.63,1.76,0
0.224,-0.322,0.254,-0.871,0.963,0
0.234,-0.316,0.275,0.185,0.458,0
0.244,-0.656,0.375,1.28,1.49,0
0.254,-1.1,0.668,1.86,2.27,0
0.264,-1.79,1.01,1.91,2.8,0
0.274,-2.25,1.27,1.8,3.15,0
0.284,-2.28,1.31,1.72,3.14,0
0.294,-2.03,1.22,1.68,2.9,0
0.304,-1.62,1.14,1.81,2.68,0
0.314,-1.35,1.23,2.17,2.83,0
0.324,-1.33,1.4,2.53,3.18,0
0.334,-1.53,1.35,2.45,3.19,0
0.344,-1.91,1.12,1.99,2.98,0
0.354,-2.38,0.815,1.08,2.74,0
0.364,-2.64,0.726,0.362,2.76,0
0.374,-2.75,0.873,0.455,2.92,0
0.384,-2.45,1.14,1.26,2.98,0
0.394,-1.59,1.17,2.45,3.14,0
0.404,-0.743,0.757,3.35,3.51,0
0.414,0.194,0.18,3.71,3.72,0
0.424,0.705,-0.331,3.1,3.19,0
0.434,-0.00794,-0.825,1.67,1.86,0
0.444,-1.59,-0.798,0.688,1.91,0
0.454,-2.28,-0.484,-0.0544,2.33,0
0.464,-1.78,0.00171,-0.397,1.82,0
0.474,-0.737,0.991,-0.369,1.29,0
0.484,0.177,2.28,-0.654,2.38,0
0.494,0.339,3.33,-1.46,3.65,0
0.504,-0.468,3.28,-1.81,3.77,0
0.514,-1.27,2.39,-1.44,3.06,0
0.524,-1.03,0.229,-0.988,1.44,0
0.534,-1.49,-1.17,0.31,1.92,0
0.544,0.213,-2.18,-1.51,2.66,0
0.554,0.963,-4.06,-3.31,5.33,0
0.564,1.39,-5.44,-4.61,7.26,0
0.574,1.12,-4.36,-3.69,5.82,0
0.584,-0.498,-4.17,-2.98,5.15,0
0.594,-1.54,-3.73,-2.38,4.68,0
0.604,-1.21,-2.78,-1.12,3.24,0
0.614,-0.629,-1.68,0.437,1.85,0
0.624,-0.102,-0.559,1.5,1.61,0
0.634,0.825,0.683,2.44,2.67,0
0.644,2.17,1.52,4.56,5.27,0
0.654,3.81,1.84,1.34,4.43,0
0.664,4.91,2.08,-1.47,5.54,0
0.674,3.25,2.07,-3.14,4.97,0
0.684,1.02,2.05,-4.15,4.74,0
0.694,-0.565,1.52,-3.93,4.25,0
0.704,-1.92,0.769,-1.78,2.73,0
0.714,-0.628,-0.51,1.9,2.07,0
0.724,2.16,-0.489,0.428,2.26,0
0.734,2.52,-0.836,-0.806,2.78,0
0.744,-0.0483,-2.24,0.807,2.39,0
0.754,-4.06,-3.02,-1.01,5.16,0
0.764,-5.76,-3.41,-0.687,6.73,0
0.774,-3.45,-3.47,-1.04,5.0,0
0.784,1.49,-2.23,-6.06,6.63,0
0.794,4.99,1.93,-6.8,8.65,0
0.804,4.09,3.85,-1.3,5.76,0
0.814,-1.68,3.12,2.96,4.62,0
0.824,-1.75,2.03,2.82,3.89,0
0.834,-0.187,-0.503,2.28,2.34,0
0.844,-0.147,-1.15,1.02,1.54,0
0.854,-0.765,-0.246,0.0727,0.807,0
0.864,-1.24,1.04,-0.0686,1.62,0
0.874,-0.139,2.11,0.451,2.16,0
0.884,1.81,2.39,1.46,3.33,0
0.894,3.38,1.66,2.49,4.52,0
0.905,4.15,0.638,3.47,5.45,0
0.915,4.69,-0.127,4.4,6.43,0
0.925,4.49,-0.714,5.16,6.88,0
0.935,3.99,-1.01,5.27,6.69,0
0.945,3.1,-1.48,3.93,5.22,0
0.955,2.12,-1.8,2.36,3.65,0
0.965,0.628,-1.86,0.349,2.0,0
0.975,-0.314,-1.24,-0.526,1.38,0
0.985,-0.275,-0.675,-1.64,1.79,0
0.995,0.0284,-0.352,-2.25,2.27,0
1.0,0.398,0.0622,-2.06,2.1,0
1.01,1.02,0.227,-1.18,1.58,0
1.02,1.45,-0.278,-0.502,1.56,0
1.03,1.6,-1.04,-0.271,1.93,0
1.04,1.74,-1.34,-0.425,2.24,0
1.05,1.55,-1.31,-1.07,2.29,0
1.06,1.23,-0.983,-1.98,2.53,0
1.07,0.99,-0.624,-2.86,3.09,0
1.08,0.929,-0.529,-3.17,3.35,0
1.09,0.63,-0.373,-2.95,3.04,0
1.1,0.414,-0.269,-2.48,2.53,0
1.11,-0.197,-0.452,-1.55,1.63,0
1.12,-1.07,-0.972,-1.76,2.28,0
1.13,-2.68,-1.78,-2.94,4.36,0
1.14,-4.24,-2.37,-3.06,5.74,0
1.15,-3.96,-2.4,-2.89,5.45,0
1.16,-2.77,-1.67,-2.93,4.36,0
1.17,-1.44,-0.591,-2.09,2.61,0
1.18,0.396,0.665,-1.15,1.39,0
1.19,0.868,1.4,-1.47,2.21,0
1.2,0.0672,1.2,-1.66,2.05,0
1.21,-0.66,0.689,-0.981,1.37,0
1.22,-0.978,0.122,-0.595,1.15,0
1.23,-1.11,-0.325,-0.27,1.19,0
1.24,-0.956,-0.206,0.375,1.05,0
1.25,-0.533,0.467,0.917,1.16,0
1.26,-0.138,1.23,1.04,1.62,0
1.27,0.0111,1.45,1.05,1.79,0
1.28,0.113,1.21,1.44,1.89,0
1.29,1.29,2.12,1.5,2.9,0
1.3,0.987,3.0,2.04,3.76,0
1.31,0.0349,2.92,2.33,3.73,0
1.33,-0.223,2.52,2.36,3.46,0
1.34,-0.204,2.47,2.47,3.5,0
1.35,-0.757,2.48,2.23,3.42,0
1.36,-1.32,1.94,1.6,2.84,0
1.37,-0.682,1.63,1.44,2.28,0
1.38,0.727,1.73,1.93,2.69,0
1.39,2.53,1.91,3.17,4.48,0
1.4,4.18,2.22,4.83,6.76,0
1.41,3.83,1.66,5.26,6.71,0
1.42,2.43,0.513,4.74,5.35,0
1.43,0.589,-1.12,3.4,3.62,0
1.44,-1.5,-2.53,1.76,3.43,0
1.45,-2.44,-1.05,0.271,2.66,0
1.46,-2.77,-0.188,-1.11,2.99,0
1.47,-2.52,-0.325,-1.33,2.86,0
1.48,-1.75,-0.667,0.767,2.03,0
1.49,-0.665,-1.11,1.6,2.06,0
1.5,-0.283,-0.955,1.16,1.53,0
1.51,0.28,-0.344,0.717,0.843,0
1.52,0.408,0.0522,0.941,1.03,0
1.53,-0.00127,-0.148,0.344,0.375,0
1.54,-0.707,-0.871,-0.392,1.19,0
1.55,-1.44,-1.44,-0.511,2.1,0
1.56,-1.88,-1.56,-0.436,2.48,0
1.57,-2.19,-1.55,-0.552,2.74,0
1.58,-2.15,-1.84,-0.637,2.9,0
1.59,-2.1,-2.14,-0.915,3.13,0
1.6,-2.16,-2.1,-1.45,3.34,0
1.61,-2.04,-1.99,-1.67,3.3,0
1.62,-1.42,-2.42,-0.888,2.94,0
1.63,-2.73,-1.69,-0.715,3.29,0
1.64,-3.01,-0.831,-0.754,3.21,0
1.65,-2.54,-0.501,-0.69,2.68,0
1.66,-2.13,-0.524,-1.35,2.57,0
1.67,-1.75,-0.64,-2.25,2.92,0
1.68,-1.58,-0.471,-2.95,3.38,0
1.69,-1.51,-0.178,-3.57,3.88,0
1.7,-1.25,0.0969,-3.77,3.97,0
1.71,-1.04,0.246,-3.37,3.54,0
1.72,-0.684,0.275,-2.22,2.34,0
1.73,-0.267,0.296,-0.857,0.945,0
1.74,-0.152,0.381,0.136,0.432,0
1.75,-0.0798,0.758,0.813,1.11,0
1.76,0.404,1.41,1.08,1.82,0
1.77,1.14,1.58,0.73,2.08,0
1.78,1.59,1.35,0.921,2.28,0
1.79,2.31,1.79,0.715,3.01,0
1.8,2.53,2.16,0.733,3.41,0
1.81,2.39,2.15,0.992,3.36,0
1.82,2.07,2.12,1.13,3.17,0
1.83,1.11,2.32,0.931,2.74,0
1.84,0.257,2.39,0.427,2.44,0
1.85,0.0467,2.45,0.0118,2.45,0
1.86,0.358,2.39,-0.302,2.44,0
1.87,1.12,2.24,-0.113,2.51,0
1.88,2.39,2.19,0.66,3.3,0
1.89,4.11,2.22,1.55,4.92,0
1.9,5.9,2.29,2.02,6.64,0
1.91,6.91,2.22,1.95,7.51,0
1.92,6.33,1.73,1.55,6.74,0
1.93,4.79,0.794,0.9,4.94,0
1.94,3.13,-0.223,0.334,3.16,0
1.95,1.95,-1.06,0.0281,2.22,0
1.96,1.12,-1.66,0.00646,2.0,0
1.97,0.276,-2.02,-0.0297,2.04,0
1.98,-0.483,-2.4,-0.25,2.46,0
1.99,-0.926,-2.68,-0.558,2.89,0
2.0,-1.07,-2.76,-0.976,3.11,0
2.01,-0.933,-2.64,-1.54,3.2,0
2.02,-0.739,-2.46,-1.92,3.2,0
2.03,-0.554,-2.25,-1.96,3.03,0
2.04,-0.627,-2.22,-1.89,2.98,0
2.05,-0.866,-2.33,-1.72,3.02,0
2.06,-1.19,-2.44,-1.36,3.04,0
2.07,-1.79,-2.52,-1.2,3.32,0
2.08,-2.4,-2.65,-1.22,3.78,0
2.09,-2.77,-2.72,-1.24,4.08,0
2.1,-2.78,-2.65,-1.19,4.02,0
2.11,-2.63,-2.44,-1.08,3.74,0
2.12,-2.56,-2.18,-0.965,3.5,0
2.13,-2.8,-2.0,-0.905,3.56,0
2.14,-3.03,-1.81,-0.876,3.63,0
2.15,-3.04,-1.59,-0.804,3.53,0
2.16,-2.72,-1.3,-0.681,3.09,0
2.17,-2.21,-0.905,-0.652,2.48,0
2.18,-1.42,-0.311,-0.601,1.57,0
2.19,-0.634,0.228,-0.563,0.878,0
2.2,-0.11,0.514,-0.633,0.823,0
2.21,0.408,0.815,-0.474,1.03,0
2.22,0.796,1.15,-0.29,1.42,0
2.23,0.961,1.42,-0.196,1.73,0
2.24,1.24,1.64,-0.043,2.06,0
2.25,1.69,1.87,0.301,2.54,0
2.26,2.05,2.17,0.901,3.12,0
2.27,2.06,2.25,1.33,3.33,0
2.28,1.77,2.09,1.4,3.08,0
2.29,1.46,1.96,1.37,2.8,0
2.3,1.33,2.0,1.17,2.67,0
2.31,1.46,2.22,0.965,2.82,0
2.32,1.84,2.58,0.789,3.27,0
2.33,1.94,2.89,0.565,3.53,0
2.34,1.44,2.96,0.339,3.3,0
2.35,0.674,2.76,0.158,2.85,0
2.36,0.384,2.41,0.224,2.45,0
2.37,0.793,2.19,0.735,2.44,0
2.38,1.7,2.19,1.56,3.19,0
2.39,2.84,2.27,2.48,4.4,0
2.4,3.67,2.29,3.07,5.31,0
2.41,3.7,2.09,3.09,5.25,0
2.42,2.6,1.57,2.58,3.98,0
2.43,0.82,0.746,1.71,2.04,0
2.44,-0.841,0.112,0.991,1.3,0
2.45,-1.94,-0.231,0.674,2.07,0
2.46,-2.14,-0.3,0.65,2.25,0
2.47,-1.63,-0.258,0.874,1.86,0
2.48,-0.784,-0.186,1.1,1.36,0
2.49,-0.0304,-0.187,1.15,1.17,0
2.5,0.629,-0.26,1.13,1.32,0
2.51,1.07,-0.366,1.01,1.52,0
2.52,1.04,-0.558,0.802,1.43,0
2.53,0.607,-0.932,0.475,1.21,0
2.54,-0.158,-1.43,0.0919,1.44,0
2.55,-1.0,-1.94,-0.264,2.2,0
2.56,-1.67,-2.32,-0.458,2.9,0
2.57,-2.08,-2.54,-0.678,3.36,0
2.58,-2.51,-2.68,-0.927,3.79,0
2.59,-3.02,-2.81,-1.15,4.28,0
2.6,-3.31,-2.86,-1.36,4.58,0
2.61,-3.3,-2.77,-1.5,4.56,0
2.62,-3.1,-2.56,-1.55,4.31,0
2.63,-2.9,-2.34,-1.53,4.02,0
2.64,-2.79,-2.18,-1.48,3.84,0
2.65,-2.57,-2.01,-1.39,3.55,0
2.66,-2.36,-1.81,-1.32,3.25,0
2.67,-2.39,-1.64,-1.43,3.23,0
2.68,-2.54,-1.5,-1.64,3.37,0
2.69,-2.55,-1.35,-1.72,3.36,0
2.7,-2.42,-1.16,-1.65,3.15,0
2.71,-2.17,-0.897,-1.64,2.87,0
2.72,-1.73,-0.638,-1.56,2.42,0
2.73,-1.09,-0.347,-1.48,1.87,0
2.74,-0.312,0.0457,-1.24,1.28,0
2.75,0.244,0.454,-0.639,0.821,0
2.76,0.443,0.716,0.0559,0.844,0
2.77,0.314,0.835,0.683,1.12,0
2.78,0.146,0.917,1.44,1.71,0
2.79,0.345,1.08,2.31,2.57,0
2.8,0.845,1.28,2.79,3.19,0
2.81,1.42,1.46,2.83,3.49,0
2.82,2.17,1.73,2.52,3.76,0
2.83,2.88,2.12,2.08,4.14,0
2.84,3.18,2.53,1.64,4.38,0
2.85,2.86,2.73,1.17,4.13,0
2.86,2.04,2.62,0.701,3.39,0
2.87,1.32,2.33,0.23,2.69,0
2.88,1.2,2.18,0.0592,2.49,0
2.89,1.63,2.26,0.267,2.8,0
2.9,2.28,2.24,0.584,3.25,0
2.91,3.01,2.01,0.677,3.68,0
2.92,3.77,1.75,0.629,4.2,0
2.93,4.46,1.62,0.572,4.78,0
2.94,4.83,1.42,0.525,5.06,0
2.95,4.55,0.984,0.288,4.66,0
2.96,3.58,0.305,0.00167,3.59,0
2.97,2.51,-0.33,-0.107,2.53,0
2.98,1.75,-0.796,-0.0506,1.92,0
2.99,1.29,-1.13,0.0404,1.71,0
3.0,0.971,-1.37,0.072,1.68,0
3.01,0.687,-1.6,-0.0571,1.74,0
3.02,0.394,-1.78,-0.317,1.85,0
3.03,0.134,-1.86,-0.554,1.94,0
3.04,-0.132,-1.88,-0.852,2.07,0
3.05,-0.491,-1.95,-1.22,2.35,0
3.06,-0.939,-2.0,-1.56,2.71,0
3.07,-1.34,-2.02,-1.68,2.95,0
3.08,-1.63,-2.0,-1.66,3.07,0
3.09,-1.82,-1.98,-1.73,3.2,0
3.1,-2.05,-2.01,-1.94,3.47,0
3.11,-2.33,-2.06,-2.16,3.79,0
3.12,-2.6,-2.03,-2.3,4.03,0
3.13,-2.68,-1.94,-2.28,4.02,0
3.14,-2.64,-1.77,-2.16,3.85,0
3.15,-2.68,-1.61,-2.03,3.73,0
3.16,-2.66,-1.5,-1.9,3.6,0
3.17,-2.54,-1.34,-1.66,3.31,0
3.18,-2.45,-1.14,-1.51,3.1,0
3.19,-2.45,-0.938,-1.43,2.98,0
3.2,-2.44,-0.804,-1.17,2.82,0
3.21,-2.29,-0.648,-0.865,2.54,0
3.22,-2.04,-0.459,-0.744,2.22,0
3.23,-1.83,-0.208,-0.813,2.01,0
3.24,-1.5,0.0491,-0.895,1.75,0
3.25,-1.06,0.346,-0.816,1.38,0
3.26,-0.519,0.709,-0.583,1.05,0
3.27,-0.0113,1.02,-0.376,1.08,0
3.28,0.166,1.2,-0.0532,1.21,0
3.29,0.126,1.35,0.411,1.42,0
3.3,0.254,1.51,0.988,1.82,0
3.31,0.776,1.78,1.53,2.47,0
3.32,1.56,2.21,2.03,3.38,0
3.33,2.4,2.72,2.56,4.44,0
3.34,3.01,3.23,2.83,5.24,0
3.35,2.9,3.53,2.71,5.31,0
3.36,2.03,3.52,2.37,4.7,0
3.37,0.962,3.32,1.92,3.95,0
3.38,0.55,3.18,1.57,3.59,0
3.39,1.2,3.2,1.67,3.8,0
3.4,2.66,3.17,2.32,4.74,0
3.41,4.29,2.94,3.1,6.06,0
3.42,5.43,2.71,3.82,7.17,0
3.43,5.64,2.37,4.2,7.42,0
3.44,4.52,1.68,3.85,6.17,0
3.45,2.36,0.63,2.83,3.74,0
3.46,0.0518,-0.429,1.6,1.66,0
3.47,-1.84,-1.19,0.726,2.31,0
3.48,-2.9,-1.65,0.321,3.35,0
3.49,-3.15,-1.71,0.28,3.6,0
3.5,-2.67,-1.45,0.457,3.07,0
3.51,-1.76,-1.06,0.706,2.17,0
3.52,-0.886,-0.756,0.731,1.38,0
3.53,-0.313,-0.66,0.4,0.833,0
3.54,-0.114,-0.649,-0.119,0.67,0
3.55,-0.235,-0.714,-0.605,0.964,0
3.56,-0.546,-0.89,-0.958,1.42,0
3.57,-0.959,-1.1,-1.25,1.93,0
3.58,-1.51,-1.3,-1.49,2.49,0
3.59,-2.07,-1.57,-1.58,3.04,0
3.6,-2.54,-1.83,-1.4,3.43,0
3.61,-2.87,-2.06,-0.991,3.67,0
3.62,-2.96,-2.24,-0.482,3.74,0
3.63,-2.84,-2.3,-0.171,3.66,0
3.64,-2.7,-2.26,-0.211,3.53,0
3.65,-2.61,-2.16,-0.444,3.41,0
3.66,-2.54,-1.98,-0.721,3.3,0
3.67,-2.6,-1.8,-1.04,3.33,0
3.68,-2.68,-1.63,-1.42,3.44,0
3.69,-2.64,-1.44,-1.75,3.48,0
3.7,-2.62,-1.2,-1.8,3.4,0
3.71,-2.59,-0.935,-1.68,3.22,0
3.72,-2.37,-0.737,-1.53,2.91,0
3.73,-1.85,-0.562,-1.26,2.31,0
3.74,-1.23,-0.362,-0.815,1.52,0
3.75,-0.558,-0.142,-0.353,0.676,0
3.76,0.0393,0.243,0.0546,0.252,0
3.77,0.551,0.576,0.391,0.888,0
3.78,1.03,0.767,0.836,1.53,0
3.79,1.58,0.964,1.34,2.29,0
3.8,2.15,1.19,1.74,3.01,0
3.81,2.63,1.39,1.8,3.48,0
3.82,3.2,1.66,1.67,3.97,0
3.83,3.64,2.04,1.49,4.43,0
3.84,3.8,2.42,1.15,4.65,0
3.85,3.63,2.62,0.732,4.53,0
3.86,2.94,2.64,0.198,3.95,0
3.87,2.12,2.51,-0.429,3.32,0
3.88,1.7,2.36,-0.893,3.04,0
3.89,1.7,2.23,-1.11,3.02,0
3.9,2.01,2.15,-1.14,3.16,0
3.91,2.82,1.98,-0.931,3.57,0
3.92,3.78,1.74,-0.485,4.19,0
3.93,4.56,1.41,-0.0397,4.78,0
3.94,4.83,1.03,0.146,4.94,0
3.95,4.54,0.573,0.123,4.58,0
3.96,3.71,-0.111,0.0288,3.71,0
3.97,2.62,-0.862,0.00644,2.76,0
3.98,1.44,-1.54,0.0709,2.1,0
3.99,0.408,-2.11,0.235,2.16,0
4.0,-0.272,-2.53,0.318,2.57,0
4.01,-0.629,-2.77,0.158,2.84,0
4.02,-0.664,-2.8,-0.134,2.88,0
4.03,-0.541,-2.68,-0.443,2.77,0
4.04,-0.392,-2.49,-0.921,2.68,0
4.05,-0.276,-2.29,-1.49,2.74,0
4.06,-0.229,-2.01,-1.86,2.74,0
4.07,-0.636,-1.9,-2.01,2.84,0
4.08,-1.2,-2.03,-2.11,3.16,0
4.09,-1.67,-2.19,-1.96,3.38,0
4.1,-1.93,-2.27,-1.66,3.41,0
4.11,-1.96,-2.22,-1.43,3.29,0
4.12,-2.12,-2.05,-1.13,3.16,0
4.13,-2.33,-2.01,-0.951,3.22,0
4.14,-2.57,-1.97,-0.903,3.36,0
4.15,-2.81,-1.87,-0.931,3.5,0
4.16,-2.91,-1.72,-0.967,3.52,0
4.17,-2.8,-1.46,-0.932,3.29,0
4.18,-2.59,-1.11,-0.866,2.94,0
4.19,-2.25,-0.732,-0.976,2.56,0
4.2,-1.99,-0.446,-1.1,2.32,0
4.21,-1.86,-0.171,-1.08,2.16,0
4.22,-1.67,0.117,-0.978,1.94,0
4.23,-1.32,0.456,-0.839,1.63,0
4.24,-0.862,0.792,-0.663,1.34,0
4.25,-0.535,1.08,-0.407,1.27,0
4.26,-0.254,1.29,0.128,1.33,0
4.27,0.0441,1.41,0.889,1.66,0
4.28,0.0471,1.48,1.63,2.2,0
4.29,-0.185,1.47,2.33,2.76,0
4.3,-0.343,1.52,2.89,3.28,0
4.31,-0.417,1.68,3.34,3.76,0
4.32,-0.266,2.03,3.36,3.94,0
4.33,0.192,2.53,3.04,3.97,0
4.34,0.929,3.19,2.73,4.3,0
4.35,1.4,3.88,2.41,4.78,0
4.36,1.32,4.19,2.07,4.85,0
4.37,0.946,4.19,1.66,4.61,0
4.38,0.876,4.2,1.46,4.54,0
4.39,1.96,4.34,1.94,5.14,0
4.4,3.9,4.46,2.67,6.5,0
4.41,5.86,4.48,3.16,8.02,0
4.42,6.86,4.31,3.2,8.71,0
4.43,6.01,3.59,2.62,7.47,0
4.44,3.71,2.23,1.77,4.67,0
4.45,1.24,0.806,0.893,1.73,0
4.46,-0.791,-0.254,0.418,0.93,0
4.47,-2.01,-0.964,0.321,2.25,0
4.48,-2.39,-1.31,0.513,2.78,0
4.49,-2.01,-1.37,0.905,2.59,0
4.5,-1.17,-1.25,1.24,2.11,0
4.51,-0.531,-1.16,1.18,1.74,0
4.52,-0.177,-1.24,0.855,1.51,0
4.53,-0.157,-1.45,0.38,1.5,0
4.54,-0.488,-1.72,-0.0613,1.79,0
4.55,-1.0,-2.01,-0.413,2.28,0
4.56,-1.49,-2.24,-0.632,2.77,0
4.57,-1.93,-2.48,-0.727,3.22,0
4.58,-2.29,-2.72,-0.718,3.63,0
4.59,-2.42,-2.88,-0.648,3.82,0
4.6,-2.32,-2.9,-0.543,3.75,0
4.61,-2.14,-2.79,-0.401,3.54,0
4.62,-2.17,-2.73,-0.508,3.52,0
4.63,-2.33,-2.82,-0.765,3.74,0
4.64,-2.45,-2.91,-0.976,3.93,0
4.65,-2.46,-2.84,-1.19,3.94,0
4.66,-2.43,-2.61,-1.39,3.83,0
4.67,-2.38,-2.42,-1.51,3.71,0
4.68,-2.43,-2.3,-1.57,3.69,0
4.69,-2.56,-2.19,-1.6,3.73,0
4.7,-2.77,-2.05,-1.7,3.84,0
4.71,-2.87,-1.81,-1.87,3.88,0
4.72,-2.46,-1.43,-1.88,3.41,0
4.73,-1.7,-0.817,-1.65,2.5,0
4.74,-0.842,-0.12,-0.987,1.3,0
4.75,-0.0523,0.383,-0.184,0.428,0
4.76,0.657,0.677,0.45,1.05,0
4.77,1.28,1.06,0.984,1.93,0
4.78,1.8,1.55,1.48,2.79,0
4.79,2.19,1.83,1.93,3.45,0
4.8,2.43,1.87,2.09,3.71,0
4.81,2.52,1.95,1.89,3.71,0
4.82,2.59,2.23,1.56,3.75,0
4.83,2.43,2.66,1.1,3.76,0
4.84,1.84,2.91,0.61,3.5,0
4.85,1.2,3.0,0.0986,3.24,0
4.86,0.83,3.03,-0.385,3.16,0
4.87,0.881,2.87,-0.684,3.08,0
4.88,1.38,2.72,-0.683,3.13,0
4.89,2.7,2.64,-0.13,3.78,0
4.9,4.54,2.65,0.687,5.3,0
4.91,6.11,2.68,1.42,6.82,0
4.92,6.89,2.52,1.73,7.53,0
4.93,6.31,1.85,1.5,6.75,0
4.94,4.42,0.719,1.09,4.61,0
4.95,2.45,-0.437,0.729,2.59,0
4.96,1.01,-1.34,0.625,1.79,0
4.97,0.156,-1.99,0.675,2.11,0
4.98,-0.273,-2.36,0.652,2.46,0
4.99,-0.222,-2.51,0.574,2.59,0
5.0,0.18,-2.48,0.264,2.5,0
5.01,0.714,-2.22,-0.399,2.36,0
5.02,1.03,-1.96,-1.23,2.53,0
5.03,1.05,-1.86,-1.92,2.87,0
5.04,0.735,-1.92,-2.32,3.1,0
5.05,0.163,-2.12,-2.5,3.28,0
5.06,-0.441,-2.36,-2.6,3.54,0
5.07,-1.07,-2.58,-2.62,3.83,0
5.08,-1.69,-2.8,-2.56,4.15,0
5.09,-2.07,-2.97,-2.51,4.41,0
5.1,-2.17,-3.0,-2.47,4.45,0
5.11,-2.21,-2.9,-2.33,4.33,0
5.12,-2.42,-2.78,-2.12,4.25,0
5.13,-2.64,-2.75,-2.08,4.34,0
5.14,-2.7,-2.59,-2.1,4.29,0
5.15,-2.69,-2.32,-1.94,4.05,0
5.16,-2.57,-2.01,-1.74,3.7,0
5.17,-2.41,-1.72,-1.54,3.34,0
5.18,-2.18,-1.44,-1.41,2.96,0
5.19,-1.92,-1.08,-1.44,2.64,0
5.2,-1.83,-0.746,-1.5,2.48,0
5.21,-1.68,-0.465,-1.49,2.29,0
5.22,-1.52,-0.171,-1.4,2.07,0
5.23,-1.32,0.186,-1.24,1.82,0
5.24,-1.11,0.579,-0.918,1.55,0
5.25,-0.785,1.05,-0.377,1.36,0
5.26,-0.239,1.53,0.44,1.61,0
5.27,0.479,2.13,1.13,2.46,0
5.28,1.02,2.72,1.6,3.32,0
5.29,1.4,3.2,2.05,4.05,0
5.3,1.68,3.63,2.46,4.69,0
5.31,1.79,3.92,2.72,5.09,0
5.32,1.6,4.14,2.78,5.24,0
5.33,1.03,4.29,2.7,5.17,0
5.34,0.347,4.28,2.42,4.93,0
5.35,-0.214,4.25,1.9,4.66,0
5.36,-0.00983,4.35,1.61,4.64,0
5.37,1.33,4.56,2.0,5.16,0
5.38,3.53,4.85,2.69,6.57,0
5.39,5.86,4.98,3.52,8.45,0
5.4,7.25,4.76,4.31,9.69,0
5.41,6.79,3.86,4.39,8.96,0
5.42,4.57,2.26,3.8,6.36,0
5.43,1.86,0.513,2.72,3.34,0
5.44,-0.7,-0.837,1.66,1.99,0
5.45,-2.59,-1.82,0.823,3.27,0
5.46,-3.57,-2.38,0.246,4.3,0
5.47,-3.64,-2.5,0.0508,4.42,0
5.48,-2.89,-2.28,0.108,3.68,0
5.49,-1.75,-1.93,0.266,2.62,0
5.5,-0.9,-1.73,0.223,1.96,0
5.51,-0.298,-1.73,0.0208,1.75,0
5.52,-0.00162,-1.77,-0.135,1.77,0
5.53,-0.171,-1.9,-0.319,1.93,0
5.54,-0.765,-2.13,-0.668,2.36,0
5.55,-1.34,-2.42,-0.923,2.91,0
5.56,-1.8,-2.62,-1.07,3.35,0
5.57,-2.18,-2.75,-1.15,3.7,0
5.58,-2.46,-2.84,-1.21,3.94,0
5.59,-2.62,-2.9,-1.25,4.1,0
5.6,-2.7,-2.89,-1.25,4.15,0
5.61,-2.77,-2.89,-1.27,4.2,0
5.62,-2.7,-2.81,-1.29,4.1,0
5.63,-2.51,-2.56,-1.32,3.82,0
5.64,-2.43,-2.29,-1.39,3.61,0
5.65,-2.4,-2.09,-1.43,3.49,0
5.66,-2.4,-1.9,-1.43,3.38,0
5.67,-2.39,-1.71,-1.49,3.3,0
5.68,-2.34,-1.51,-1.49,3.15,0
5.69,-2.18,-1.25,-1.38,2.87,0
5.7,-1.83,-0.906,-1.3,2.42,0
5.71,-1.27,-0.522,-1.14,1.78,0
5.72,-0.54,-0.153,-0.848,1.02,0
5.73,0.327,0.272,-0.566,0.708,0
5.74,1.2,0.781,-0.15,1.44,0
5.75,1.61,1.16,0.269,2.0,0
5.76,1.57,1.3,0.569,2.12,0
5.77,1.58,1.3,0.945,2.25,0
5.78,1.8,1.33,1.37,2.62,0
5.79,2.14,1.43,1.75,3.11,0
5.8,2.45,1.55,1.97,3.5,0
5.81,2.68,1.64,1.74,3.59,0
5.82,2.51,1.84,1.24,3.35,0
5.83,1.93,2.0,0.521,2.83,0
5.84,1.11,2.06,-0.188,2.35,0
5.85,0.544,1.98,-0.727,2.18,0
5.86,0.462,1.94,-1.05,2.25,0
5.87,0.758,1.99,-1.16,2.42,0
5.88,1.93,2.11,-0.764,2.96,0
5.89,3.79,2.34,0.104,4.46,0
5.9,5.59,2.49,0.827,6.17,0
5.91,6.75,2.46,1.11,7.27,0
5.92,6.99,2.16,1.13,7.4,0
5.93,5.83,1.36,0.975,6.07,0
5.94,3.94,0.263,0.752,4.02,0
5.95,2.26,-0.727,0.527,2.43,0
5.96,0.902,-1.5,0.411,1.8,0
5.97,0.0701,-1.97,0.41,2.02,0
5.98,-0.233,-2.23,0.192,2.25,0
5.99,-0.224,-2.28,-0.274,2.31,0
6.0,-0.122,-2.17,-0.878,2.34,0
6.01,0.116,-2.01,-1.56,2.55,0
6.02,0.315,-1.83,-2.16,2.85,0
6.03,0.224,-1.69,-2.54,3.06,0
6.04,-0.094,-1.69,-2.79,3.26,0
6.05,-0.462,-1.78,-2.86,3.4,0
6.06,-0.947,-1.89,-2.76,3.47,0
6.07,-1.32,-2.0,-2.53,3.49,0
6.08,-1.64,-2.13,-2.36,3.58,0
6.09,-1.94,-2.25,-2.2,3.69,0
6.1,-2.17,-2.31,-1.97,3.73,0
6.11,-2.33,-2.27,-1.79,3.71,0
6.12,-2.23,-2.13,-1.54,3.45,0
6.13,-2.12,-1.91,-1.22,3.1,0
6.14,-2.14,-1.7,-1.1,2.95,0
6.15,-2.18,-1.49,-1.07,2.85,0
6.16,-2.21,-1.27,-1.17,2.8,0
6.17,-2.15,-1.07,-1.25,2.71,0
6.18,-1.96,-0.826,-1.16,2.42,0
6.19,-1.58,-0.422,-0.955,1.89,0
6.2,-1.05,-0.0247,-0.793,1.32,0
6.21,-0.681,0.386,-0.713,1.06,0
6.22,-0.363,0.762,-0.569,1.02,0
6.23,-0.0767,1.11,-0.228,1.13,0
6.24,0.107,1.47,0.175,1.49,0
6.25,0.315,1.82,0.594,1.94,0
6.26,0.505,2.09,1.07,2.4,0
6.27,0.634,2.33,1.7,2.95,0
6.28,0.828,2.56,2.32,3.55,0
6.29,1.2,2.8,2.88,4.2,0
6.3,1.71,3.07,3.16,4.73,0
6.31,2.02,3.32,2.98,4.89,0
6.32,2.01,3.51,2.56,4.79,0
6.33,1.64,3.56,1.88,4.35,0
6.34,1.1,3.37,1.29,3.78,0
6.35,0.736,3.22,0.924,3.43,0
6.36,0.71,3.14,0.718,3.3,0
6.37,1.2,3.15,0.927,3.5,0
6.38,2.16,3.03,1.53,4.02,0
6.39,2.89,2.72,2.08,4.48,0
6.4,3.17,2.39,2.54,4.72,0
6.41,2.41,1.74,2.64,3.98,0
6.42,0.91,0.774,2.35,2.64,0
6.43,-0.332,-0.0571,2.02,2.05,0
6.44,-1.13,-0.519,1.83,2.22,0
6.45,-1.47,-0.768,1.78,2.43,0
6.46,-1.24,-0.877,1.87,2.41,0
6.47,-0.541,-0.849,1.88,2.13,0
6.48,0.179,-0.756,1.71,1.88,0
6.49,0.745,-0.689,1.42,1.74,0
6.5,1.13,-0.71,1.13,1.75,0
6.51,1.14,-0.858,0.758,1.62,0
6.52,0.656,-1.17,0.336,1.38,0
6.53,-0.073,-1.62,-0.103,1.62,0
6.54,-0.792,-2.09,-0.523,2.3,0
6.55,-1.5,-2.5,-0.934,3.06,0
6.56,-2.04,-2.77,-1.24,3.66,0
6.57,-2.42,-2.98,-1.38,4.08,0
6.58,-2.66,-3.08,-1.46,4.32,0
6.59,-2.77,-3.11,-1.55,4.44,0
6.6,-2.75,-3.07,-1.61,4.42,0
6.61,-2.64,-2.96,-1.61,4.28,0
6.62,-2.45,-2.79,-1.7,4.08,0
6.63,-2.36,-2.59,-1.76,3.92,0
6.64,-2.36,-2.45,-1.8,3.85,0
6.65,-2.36,-2.37,-1.84,3.82,0
6.66,-2.3,-2.22,-1.76,3.65,0
6.67,-2.22,-2.01,-1.66,3.43,0
6.68,-2.27,-1.86,-1.58,3.33,0
6.69,-2.17,-1.7,-1.42,3.1,0
6.7,-1.69,-1.37,-1.17,2.46,0
6.71,-0.999,-0.917,-0.853,1.6,0
6.72,-0.429,-0.501,-0.601,0.893,0
6.73,0.28,-0.0338,-0.272,0.392,0
6.74,0.962,0.48,0.283,1.11,0
6.75,1.25,0.913,0.776,1.73,0
6.76,1.28,1.19,1.07,2.05,0
6.77,1.46,1.4,1.29,2.4,0
6.78,1.71,1.5,1.6,2.78,0
6.79,1.87,1.52,1.68,2.93,0
6.8,1.99,1.59,1.44,2.92,0
6.81,2.02,1.84,0.972,2.89,0
6.82,2.04,2.2,0.541,3.05,0
6.83,1.93,2.44,0.339,3.13,0
6.84,1.35,2.5,-0.0592,2.84,0
6.85,0.781,2.39,-0.467,2.56,0
6.86,0.568,2.24,-0.591,2.38,0
6.87,0.81,2.13,-0.479,2.33,0
6.88,1.92,2.14,-0.000526,2.88,0
6.89,3.6,2.25,0.461,4.27,0
6.9,5.1,2.31,0.838,5.66,0
6.91,5.96,2.21,1.08,6.45,0
6.92,5.87,1.83,1.15,6.25,0
6.93,4.65,1.01,0.953,4.85,0
6.94,2.91,0.00789,0.705,2.99,0
6.95,1.53,-0.827,0.553,1.82,0
6.96,0.62,-1.34,0.533,1.57,0
6.97,0.438,-1.6,0.641,1.78,0
6.98,0.55,-1.66,0.621,1.86,0
6.99,0.563,-1.68,0.14,1.78,0
7.0,0.565,-1.63,-0.609,1.83,0
7.01,0.565,-1.55,-1.33,2.12,0
7.02,0.451,-1.49,-1.92,2.48,0
7.03,-0.00589,-1.54,-2.29,2.76,0
7.04,-0.587,-1.7,-2.42,3.01,0
7.05,-1.14,-1.83,-2.41,3.23,0
7.06,-1.55,-1.96,-2.38,3.45,0
7.07,-1.84,-2.06,-2.34,3.62,0
7.08,-2.02,-2.12,-2.33,3.74,0
7.09,-2.12,-2.11,-2.27,3.76,0
7.1,-2.09,-2.06,-2.11,3.62,0
7.11,-1.96,-1.93,-1.83,3.3,0
7.12,-1.98,-1.82,-1.6,3.13,0
7.13,-2.19,-1.75,-1.59,3.23,0
7.14,-2.4,-1.66,-1.62,3.33,0
7.15,-2.47,-1.5,-1.57,3.29,0
7.16,-2.38,-1.26,-1.45,3.06,0
7.17,-2.25,-1.01,-1.35,2.81,0
7.18,-2.19,-0.784,-1.26,2.65,0
7.19,-1.99,-0.567,-1.15,2.37,0
7.2,-1.51,-0.22,-0.949,1.8,0
7.21,-0.967,0.215,-0.678,1.2,0
7.22,-0.374,0.605,-0.415,0.824,0
7.23,0.138,0.999,-0.0708,1.01,0
7.24,0.555,1.45,0.298,1.58,0
7.25,0.81,1.78,0.705,2.08,0
7.26,0.977,1.97,1.1,2.46,0
7.27,1.0,2.14,1.44,2.77,0
7.28,0.85,2.27,1.62,2.91,0
7.29,0.75,2.47,1.75,3.12,0
7.3,0.889,2.79,1.92,3.5,0
7.31,1.06,3.17,1.96,3.87,0
7.32,0.853,3.45,1.68,3.93,0
7.33,0.523,3.56,1.26,3.81,0
7.34,0.267,3.66,0.893,3.77,0
7.35,0.0449,3.67,0.621,3.72,0
7.36,0.536,3.72,0.736,3.83,0
7.37,2.11,3.85,1.39,4.6,0
7.38,4.04,3.9,2.12,6.0,0
7.39,5.6,3.74,2.86,7.32,0
7.4,5.71,3.17,3.25,7.3,0
7.41,4.05,1.89,2.88,5.31,0
7.42,1.61,0.304,2.19,2.73,0
7.43,-0.786,-1.0,1.5,1.96,0
7.44,-2.66,-1.98,0.953,3.45,0
7.45,-3.59,-2.51,0.745,4.44,0
7.46,-3.6,-2.58,0.848,4.5,0
7.47,-2.87,-2.22,1.06,3.78,0
7.48,-1.79,-1.79,1.16,2.79,0
7.49,-0.981,-1.51,0.973,2.04,0
7.5,-0.378,-1.36,0.557,1.51,0
7.51,-0.0131,-1.23,0.108,1.23,0
7.52,-0.0266,-1.19,-0.253,1.21,0
7.53,-0.273,-1.31,-0.489,1.42,0
7.54,-0.715,-1.48,-0.606,1.75,0
7.55,-1.29,-1.75,-0.654,2.27,0
7.56,-1.76,-2.05,-0.628,2.77,0
7.57,-2.05,-2.2,-0.538,3.05,0
7.58,-2.21,-2.2,-0.414,3.15,0
7.59,-2.27,-2.2,-0.301,3.17,0
7.6,-2.33,-2.22,-0.298,3.23,0
7.61,-2.42,-2.22,-0.305,3.3,0
7.62,-2.53,-2.18,-0.356,3.36,0
7.63,-2.69,-2.13,-0.426,3.45,0
7.64,-2.79,-2.03,-0.543,3.5,0
7.65,-2.92,-1.9,-0.696,3.55,0
7.66,-2.99,-1.72,-0.766,3.53,0
7.67,-2.85,-1.44,-0.65,3.26,0
7.68,-2.69,-1.14,-0.533,2.97,0
7.69,-2.43,-0.792,-0.445,2.59,0
7.7,-1.89,-0.432,-0.333,1.97,0
7.71,-1.08,0.0407,-0.0891,1.09,0
7.72,-0.308,0.569,0.189,0.674,0
7.73,0.477,1.05,0.462,1.24,0
7.74,1.26,1.46,0.895,2.12,0
7.75,1.87,1.78,1.38,2.93,0
7.76,2.38,1.9,1.79,3.53,0
7.77,2.67,1.89,1.96,3.81,0
7.78,2.88,2.08,1.85,4.01,0
7.79,3.02,2.27,1.5,4.06,0
7.8,2.78,2.32,0.829,3.72,0
7.81,2.51,2.4,0.109,3.47,0
7.82,2.11,2.45,-0.582,3.29,0
7.83,1.45,2.45,-1.31,3.13,0
7.84,0.924,2.41,-1.94,3.23,0
7.85,0.618,2.3,-2.38,3.37,0
7.86,0.688,2.09,-2.49,3.32,0
7.87,1.68,2.05,-2.16,3.42,0
7.88,3.57,2.28,-1.53,4.5,0
7.89,5.45,2.43,-0.91,6.04,0
7.9,6.58,2.29,-0.561,6.98,0
7.91,6.48,1.7,-0.326,6.7,0
7.92,5.28,0.739,-0.0702,5.33,0
7.93,3.51,-0.316,0.189,3.53,0
7.94,2.1,-1.14,0.572,2.46,0
7.95,1.21,-1.7,0.879,2.27,0
7.96,0.814,-2.08,1.1,2.49,0
7.97,0.798,-2.28,1.27,2.73,0
7.98,0.868,-2.33,1.13,2.73,0
7.99,0.988,-2.35,0.663,2.64,0
8.0,1.06,-2.27,0.126,2.51,0
8.01,0.837,-2.19,-0.456,2.39,0
8.02,0.402,-2.31,-1.08,2.58,0
8.03,-0.255,-2.53,-1.58,2.99,0
8.04,-1.0,-2.7,-1.88,3.44,0
8.05,-1.68,-2.91,-2.03,3.93,0
8.06,-2.21,-3.1,-2.13,4.36,0
8.07,-2.5,-3.2,-2.04,4.54,0
8.08,-2.66,-3.19,-1.86,4.56,0
8.09,-2.65,-3.05,-1.62,4.35,0
8.1,-2.62,-2.86,-1.43,4.13,0
8.11,-2.73,-2.71,-1.38,4.09,0
8.12,-2.78,-2.56,-1.3,4.0,0
8.13,-2.73,-2.29,-1.08,3.72,0
8.14,-2.71,-1.97,-0.837,3.45,0
8.15,-2.7,-1.7,-0.764,3.28,0
8.16,-2.69,-1.46,-0.716,3.14,0
8.17,-2.58,-1.14,-0.604,2.88,0
8.18,-2.46,-0.839,-0.66,2.68,0
8.19,-2.28,-0.486,-0.77,2.45,0
8.2,-1.94,-0.0989,-0.817,2.11,0
8.21,-1.55,0.324,-0.776,1.77,0
8.22,-1.21,0.696,-0.59,1.52,0
8.23,-0.94,1.01,-0.343,1.42,0
8.24,-0.62,1.32,-0.048,1.46,0
8.25,-0.262,1.67,0.28,1.72,0
8.26,0.0804,1.99,0.563,2.07,0
8.27,0.277,2.24,0.876,2.42,0
8.28,0.252,2.38,0.926,2.57,0
8.29,0.26,2.53,0.654,2.62,0
8.3,0.466,2.82,0.538,2.91,0
8.31,0.715,3.29,0.477,3.4,0
8.32,0.856,3.73,0.489,3.86,0
8.33,0.994,3.99,0.521,4.15,0
8.34,1.32,4.27,0.689,4.52,0
8.35,2.13,4.57,1.06,5.15,0
8.36,3.31,4.78,1.57,6.03,0
8.37,4.54,4.86,1.92,6.92,0
8.38,5.54,4.65,2.26,7.58,0
8.39,5.7,4.06,2.53,7.45,0
8.4,4.46,3.05,2.44,5.92,0
8.41,2.43,1.73,2.14,3.67,0
8.42,0.552,0.536,1.78,1.94,0
8.43,-0.877,-0.393,1.5,1.78,0
8.44,-1.62,-0.908,1.44,2.35,0
8.45,-1.56,-1.16,1.63,2.54,0
8.46,-0.744,-1.11,2.0,2.41,0
8.47,0.346,-0.89,2.22,2.42,0
8.48,1.15,-0.736,2.15,2.55,0
8.49,1.33,-0.873,1.73,2.35,0
8.5,0.788,-1.25,1.05,1.81,0
8.51,-0.0347,-1.68,0.428,1.74,0
8.52,-0.781,-2.13,-0.0877,2.27,0
8.53,-1.43,-2.53,-0.567,2.97,0
8.54,-1.8,-2.71,-0.865,3.36,0
8.55,-1.95,-2.77,-0.996,3.53,0
8.56,-2.1,-2.88,-1.09,3.73,0
8.57,-2.23,-2.95,-1.14,3.87,0
8.58,-2.32,-2.95,-1.23,3.95,0
8.59,-2.29,-2.87,-1.26,3.88,0
8.6,-2.17,-2.74,-1.2,3.69,0
8.61,-2.14,-2.59,-1.19,3.57,0
8.62,-2.22,-2.51,-1.16,3.54,0
8.63,-2.28,-2.43,-1.18,3.53,0
8.64,-2.31,-2.3,-1.2,3.47,0
8.65,-2.4,-2.13,-1.25,3.45,0
8.66,-2.5,-1.98,-1.29,3.44,0
8.67,-2.35,-1.68,-1.27,3.15,0
8.68,-1.94,-1.29,-1.05,2.56,0
8.69,-1.4,-0.878,-0.667,1.78,0
8.7,-0.823,-0.56,-0.315,1.04,0
8.71,-0.316,-0.213,-0.0386,0.383,0
8.72,0.172,0.165,0.166,0.291,0
8.73,0.408,0.398,0.322,0.655,0
8.74,0.531,0.563,0.433,0.887,0
8.75,0.735,0.758,0.716,1.28,0
8.76,1.08,0.94,1.05,1.78,0
8.77,1.61,1.17,1.21,2.33,0
8.78,2.18,1.59,1.19,2.95,0
8.79,2.75,2.12,1.08,3.64,0
8.8,2.89,2.54,0.735,3.91,0
8.81,2.4,2.64,0.276,3.57,0
8.82,1.49,2.63,-0.221,3.03,0
8.83,0.675,2.57,-0.748,2.76,0
8.84,0.394,2.49,-0.993,2.71,0
8.85,1.03,2.61,-0.506,2.86,0
8.86,2.78,2.87,0.445,4.02,0
8.87,4.71,3.02,1.18,5.72,0
8.88,6.28,3.02,1.56,7.14,0
8.89,6.99,2.82,1.81,7.75,0
8.9,6.13,2.11,1.69,6.7,0
8.91,4.2,0.915,1.27,4.48,0
8.92,2.29,-0.221,0.869,2.46,0
8.93,0.852,-1.03,0.683,1.5,0
8.94,0.0749,-1.55,0.692,1.7,0
8.95,-0.192,-1.79,0.581,1.89,0
8.96,-0.115,-1.91,0.19,1.92,0
8.97,0.0277,-1.88,-0.532,1.95,0
8.98,0.163,-1.74,-1.39,2.24,0
8.99,0.224,-1.63,-2.02,2.61,0
9.0,0.137,-1.57,-2.46,2.92,0
9.01,0.0213,-1.52,-2.67,3.07,0
9.02,-0.316,-1.49,-2.64,3.05,0
9.03,-0.753,-1.61,-2.53,3.1,0
9.04,-1.19,-1.87,-2.42,3.28,0
9.05,-1.58,-2.1,-2.33,3.51,0
9.06,-1.89,-2.25,-2.29,3.73,0
9.07,-2.1,-2.34,-2.19,3.84,0
9.08,-2.17,-2.34,-1.85,3.69,0
9.09,-2.27,-2.31,-1.5,3.57,0
9.1,-2.34,-2.28,-1.28,3.51,0
9.11,-2.42,-2.2,-1.2,3.48,0
9.12,-2.36,-2.03,-1.17,3.32,0
9.13,-2.16,-1.7,-1.11,2.96,0
9.14,-2.09,-1.43,-1.23,2.81,0
9.15,-2.15,-1.23,-1.41,2.85,0
9.16,-2.07,-0.985,-1.42,2.7,0
9.17,-1.85,-0.645,-1.25,2.32,0
9.18,-1.46,-0.241,-1.02,1.79,0
9.19,-0.916,0.227,-0.728,1.19,0
9.2,-0.533,0.675,-0.52,1.01,0
9.21,-0.0554,1.16,-0.251,1.19,0
9.22,0.487,1.72,0.132,1.79,0
9.23,0.921,2.22,0.581,2.47,0
9.24,1.2,2.64,1.1,3.1,0
9.25,1.47,3.06,1.77,3.83,0
9.26,1.91,3.39,2.24,4.49,0
9.27,2.42,3.65,2.53,5.06,0
9.28,2.75,3.8,2.44,5.29,0
9.29,2.56,3.77,1.83,4.91,0
9.3,1.73,3.53,1.08,4.08,0
9.31,0.53,3.11,0.392,3.18,0
9.32,-0.77,2.76,-0.213,2.87,0
9.33,-1.44,2.7,-0.49,3.1,0
9.34,-1.27,2.83,-0.206,3.11,0
9.35,-0.419,2.92,0.545,3.0,0
9.36,0.65,2.74,1.28,3.1,0
9.37,1.42,2.41,1.78,3.32,0
9.38,1.77,2.11,2.11,3.47,0
9.39,1.21,1.55,2.12,2.89,0
9.4,-0.0387,0.791,1.75,1.92,0
9.41,-1.13,0.19,1.3,1.74,0
9.42,-1.94,-0.194,0.949,2.16,0
9.43,-2.4,-0.412,0.783,2.56,0
9.44,-1.99,-0.455,0.837,2.2,0
9.45,-0.693,-0.24,1.09,1.31,0
9.46,0.684,0.0451,1.18,1.37,0
9.47,1.78,0.285,1.18,2.15,0
9.48,2.45,0.317,1.12,2.71,0
9.49,2.49,0.000419,0.901,2.65,0
9.5,1.83,-0.542,0.478,1.97,0
9.51,0.902,-1.21,0.0595,1.51,0
9.52,0.0972,-1.88,-0.279,1.9,0
9.53,-0.732,-2.5,-0.485,2.65,0
9.54,-1.5,-3.0,-0.592,3.41,0
9.55,-1.99,-3.41,-0.591,3.99,0
9.56,-2.33,-3.68,-0.529,4.39,0
9.57,-2.47,-3.81,-0.567,4.58,0
9.58,-2.58,-3.87,-0.605,4.69,0
9.59,-2.7,-3.87,-0.646,4.76,0
9.6,-2.66,-3.74,-0.814,4.67,0
9.61,-2.58,-3.55,-1.02,4.51,0
9.62,-2.54,-3.32,-1.29,4.37,0
9.63,-2.5,-3.03,-1.43,4.18,0
9.64,-2.57,-2.77,-1.55,4.08,0
9.65,-2.51,-2.5,-1.55,3.86,0
9.66,-2.23,-2.17,-1.42,3.42,0
9.67,-1.64,-1.74,-1.16,2.66,0
9.68,-0.851,-1.2,-0.803,1.67,0
9.69,-0.0205,-0.553,-0.393,0.679,0
9.7,0.551,0.0417,0.0537,0.555,0
9.71,0.807,0.433,0.502,1.04,0
9.73,1.0,0.819,0.96,1.61,0
9.74,1.33,1.22,1.51,2.35,0
9.75,1.86,1.61,2.2,3.3,0
9.76,2.44,1.98,2.63,4.09,0
9.77,2.76,2.42,2.53,4.45,0
9.78,2.51,2.72,1.93,4.18,0
9.79,1.93,2.8,1.08,3.57,0
9.8,1.36,2.78,0.311,3.11,0
9.81,1.07,2.85,-0.274,3.06,0
9.82,1.31,2.95,-0.505,3.27,0
9.83,2.48,3.17,-0.17,4.03,0
9.84,4.67,3.49,0.625,5.87,0
9.85,7.22,3.78,1.47,8.28,0
9.86,9.04,3.93,2.38,10.1,0
9.87,8.9,3.34,2.82,9.92,0
9.88,6.66,1.81,2.44,7.32,0
9.89,3.86,0.11,1.77,4.25,0
9.9,1.5,-1.26,1.12,2.26,0
9.91,-0.269,-2.36,0.57,2.44,0
9.92,-1.34,-3.07,0.0426,3.35,0
9.93,-1.75,-3.31,-0.667,3.81,0
9.94,-1.46,-3.22,-1.46,3.83,0
9.95,-0.803,-2.87,-2.23,3.72,0
9.96,-0.382,-2.45,-2.89,3.8,0
9.97,-0.147,-2.1,-3.35,3.96,0
9.98,0.0574,-1.81,-3.46,3.91,0
9.99,-0.0322,-1.61,-3.43,3.79,0
10.0,-0.149,-1.46,-3.35,3.66,0
10.0,-0.206,-1.34,-3.25,3.52,0
10.0,-0.389,-1.36,-3.12,3.42,0
10.0,-0.66,-1.48,-2.93,3.35,0
10.0,-1.03,-1.66,-2.64,3.28,0
10.0,-1.45,-1.79,-2.18,3.17,0
10.1,-1.8,-1.9,-1.81,3.18,0
10.1,-2.04,-1.95,-1.36,3.13,0
10.1,-2.1,-1.85,-0.997,2.97,0
10.1,-2.13,-1.69,-0.791,2.83,0
10.1,-2.24,-1.57,-0.753,2.84,0
10.1,-2.24,-1.4,-0.758,2.75,0
10.1,-1.97,-1.13,-0.689,2.37,0
10.1,-1.65,-0.745,-0.63,1.92,0
10.1,-1.26,-0.393,-0.593,1.44,0
10.1,-0.726,0.0316,-0.558,0.916,0
10.2,-0.141,0.493,-0.626,0.809,0
10.2,0.285,0.923,-0.744,1.22,0
10.2,0.671,1.41,-0.632,1.69,0
10.2,0.86,1.83,-0.277,2.05,0
10.2,0.729,2.03,0.066,2.16,0
10.2,0.668,2.17,0.633,2.36,0
10.2,0.751,2.42,1.28,2.84,0
10.2,0.977,2.75,1.87,3.47,0
10.2,1.33,3.04,2.23,4.0,0
10.2,1.54,3.31,2.22,4.27,0
10.3,1.15,3.46,1.92,4.12,0
10.3,0.229,3.41,1.46,3.72,0
10.3,-0.631,3.36,1.01,3.56,0
10.3,-0.874,3.28,0.84,3.5,0
10.3,-0.324,3.15,1.01,3.32,0
10.3,1.21,3.2,1.6,3.78,0
10.3,3.09,3.33,2.3,5.09,0
10.3,4.6,3.35,2.78,6.33,0
10.3,4.84,3.01,2.93,6.4,0
10.3,3.37,2.01,2.45,4.62,0
10.4,1.09,0.763,1.69,2.15,0
10.4,-0.752,-0.258,1.18,1.42,0
10.4,-1.95,-0.968,1.05,2.42,0
10.4,-2.41,-1.4,1.17,3.02,0
10.4,-2.06,-1.52,1.47,2.95,0
10.4,-1.21,-1.49,1.75,2.59,0
10.4,-0.35,-1.38,1.78,2.28,0
10.4,0.337,-1.27,1.59,2.06,0
10.4,0.606,-1.31,1.21,1.88,0
10.4,0.4,-1.52,0.662,1.71,0
10.5,-0.225,-1.9,0.136,1.92,0
10.5,-0.965,-2.35,-0.319,2.56,0
10.5,-1.6,-2.71,-0.692,3.23,0
10.5,-2.15,-2.94,-0.99,3.77,0
10.5,-2.52,-3.07,-1.17,4.14,0
10.5,-2.69,-3.13,-1.16,4.29,0
10.5,-2.64,-3.1,-0.999,4.19,0
10.5,-2.56,-3.05,-0.729,4.05,0
10.5,-2.48,-3.01,-0.56,3.94,0
10.5,-2.46,-2.89,-0.593,3.84,0
10.6,-2.39,-2.71,-0.682,3.68,0
10.6,-2.36,-2.53,-0.764,3.54,0
10.6,-2.46,-2.37,-0.898,3.53,0
10.6,-2.54,-2.2,-0.981,3.5,0
10.6,-2.36,-1.91,-0.92,3.17,0
10.6,-2.04,-1.56,-0.721,2.67,0
10.6,-1.71,-1.22,-0.508,2.16,0
10.6,-1.53,-0.965,-0.389,1.85,0
10.6,-1.18,-0.668,-0.233,1.37,0
10.6,-0.636,-0.288,-0.0979,0.705,0
10.7,-0.0716,0.182,0.0991,0.219,0
10.7,0.399,0.68,0.35,0.862,0
10.7,0.7,1.07,0.709,1.46,0
10.7,0.89,1.29,1.09,1.91,0
10.7,1.07,1.41,1.48,2.31,0
10.7,1.36,1.56,1.78,2.73,0
10.7,1.69,1.72,1.82,3.02,0
10.7,2.02,1.84,1.58,3.15,0
10.7,2.19,1.97,1.08,3.14,0
10.7,2.15,2.15,0.495,3.08,0
10.8,1.9,2.3,0.0738,2.98,0
10.8,1.25,2.33,-0.277,2.66,0
10.8,0.715,2.31,-0.55,2.48,0
10.8,0.538,2.3,-0.528,2.42,0
10.8,0.628,2.21,-0.342,2.32,0
10.8,1.14,2.18,0.017,2.46,0
10.8,2.25,2.2,0.472,3.18,0
10.8,3.45,2.22,0.77,4.17,0
10.8,4.34,2.21,0.846,4.94,0
10.8,4.78,2.06,0.925,5.28,0
10.9,4.49,1.63,0.91,4.86,0
10.9,3.55,0.853,0.761,3.73,0
10.9,2.41,0.0124,0.558,2.48,0
10.9,1.53,-0.626,0.354,1.69,0
10.9,1.04,-1.02,0.128,1.47,0
10.9,0.821,-1.23,-0.18,1.49,0
10.9,0.757,-1.38,-0.527,1.66,0
10.9,0.642,-1.5,-0.954,1.89,0
10.9,0.589,-1.55,-1.36,2.15,0
10.9,0.498,-1.58,-1.76,2.42,0
11.0,0.336,-1.64,-1.99,2.6,0
11.0,-0.0502,-1.78,-2.03,2.7,0
11.0,-0.691,-2.02,-2.04,2.95,0
11.0,-1.27,-2.34,-1.98,3.32,0
11.0,-1.81,-2.58,-1.85,3.66,0
11.0,-2.17,-2.67,-1.64,3.81,0
11.0,-2.41,-2.72,-1.48,3.92,0
11.0,-2.53,-2.76,-1.35,3.98,0
11.0,-2.63,-2.71,-1.28,3.99,0
11.0,-2.73,-2.55,-1.34,3.97,0
11.1,-2.74,-2.39,-1.45,3.92,0
11.1,-2.64,-2.14,-1.52,3.72,0
11.1,-2.6,-1.81,-1.52,3.51,0
11.1,-2.52,-1.53,-1.52,3.32,0
11.1,-2.39,-1.27,-1.62,3.15,0
11.1,-2.31,-0.937,-1.68,3.01,0
11.1,-2.13,-0.575,-1.68,2.77,0
11.1,-1.7,-0.199,-1.53,2.29,0
11.1,-1.14,0.251,-1.33,1.77,0
11.1,-0.572,0.734,-0.985,1.35,0
11.2,-0.0747,1.12,-0.49,1.23,0
11.2,0.334,1.49,-0.0904,1.53,0
11.2,0.513,1.8,0.417,1.92,0
11.2,0.469,2.05,0.983,2.32,0
11.2,0.463,2.32,1.41,2.75,0
11.2,0.726,2.7,1.84,3.35,0
11.2,1.22,3.2,2.26,4.1,0
11.2,1.64,3.65,2.58,4.76,0
11.2,1.89,3.85,2.67,5.05,0
11.2,1.78,3.87,2.52,4.95,0
11.3,1.15,3.81,2.03,4.46,0
11.3,0.233,3.59,1.23,3.81,0
11.3,-0.359,3.48,0.644,3.56,0
11.3,-0.579,3.48,0.379,3.55,0
11.3,-0.0892,3.42,0.514,3.46,0
11.3,1.31,3.46,1.21,3.89,0
11.3,3.09,3.49,2.1,5.11,0
11.3,4.64,3.39,2.85,6.42,0
11.3,4.76,2.92,3.06,6.37,0
11.3,3.07,1.83,2.58,4.41,0
11.4,0.734,0.37,1.84,2.02,0
11.4,-1.24,-0.706,1.23,1.89,0
11.4,-2.77,-1.34,0.897,3.2,0
11.4,-3.44,-1.65,0.89,3.92,0
11.4,-3.2,-1.71,1.1,3.79,0
11.4,-2.21,-1.52,1.4,3.03,0
11.4,-1.17,-1.29,1.44,2.26,0
11.4,-0.238,-1.09,1.22,1.65,0
11.4,0.677,-0.946,1.03,1.55,0
11.4,1.19,-0.929,0.803,1.71,0
11.5,1.11,-1.06,0.469,1.6,0
11.5,0.489,-1.44,0.0617,1.52,0
11.5,-0.434,-1.99,-0.363,2.07,0
11.5,-1.24,-2.52,-0.737,2.9,0
11.5,-2.09,-3.02,-1.09,3.83,0
11.5,-2.66,-3.29,-1.26,4.42,0
11.5,-2.94,-3.4,-1.21,4.66,0
11.5,-3.05,-3.43,-1.11,4.72,0
11.5,-2.99,-3.39,-0.992,4.62,0
11.5,-2.83,-3.24,-0.834,4.39,0
11.6,-2.67,-3.08,-0.77,4.15,0
11.6,-2.61,-2.96,-0.874,4.04,0
11.6,-2.59,-2.78,-1.03,3.94,0
11.6,-2.56,-2.59,-1.17,3.83,0
11.6,-2.43,-2.32,-1.19,3.56,0
11.6,-2.24,-1.97,-1.11,3.19,0
11.6,-2.03,-1.62,-0.974,2.77,0
11.6,-1.76,-1.32,-0.871,2.37,0
11.6,-1.28,-0.925,-0.73,1.74,0
11.6,-0.766,-0.458,-0.588,1.07,0
11.7,-0.205,0.000119,-0.292,0.356,0
11.7,0.301,0.487,0.226,0.616,0
11.7,0.902,1.01,0.817,1.58,0
11.7,1.28,1.53,1.35,2.41,0
11.7,1.69,1.86,1.72,3.04,0
11.7,2.18,2.04,1.98,3.58,0
11.7,2.63,2.19,1.94,3.94,0
11.7,3.0,2.42,1.64,4.19,0
11.7,2.81,2.7,1.13,4.06,0
11.7,1.94,2.72,0.442,3.37,0
11.8,1.0,2.62,-0.257,2.81,0
11.8,0.463,2.62,-0.755,2.76,0
11.8,0.309,2.61,-1.09,2.85,0
11.8,1.15,2.73,-0.934,3.1,0
11.8,3.68,3.15,0.0415,4.84,0
11.8,6.84,3.68,1.07,7.84,0
11.8,9.3,4.16,1.85,10.4,0
11.8,9.92,3.88,1.96,10.8,0
11.8,8.14,2.37,1.33,8.58,0
11.8,5.14,0.566,0.676,5.22,0
11.9,2.52,-0.801,0.275,2.66,0
11.9,0.627,-1.89,0.206,2.01,0
11.9,-0.414,-2.6,0.417,2.67,0
11.9,-0.733,-3.02,0.64,3.17,0
11.9,-0.757,-3.17,0.576,3.31,0
11.9,-0.626,-3.13,0.108,3.19,0
11.9,-0.466,-2.99,-0.655,3.1,0
11.9,-0.405,-2.81,-1.66,3.28,0
11.9,-0.591,-2.62,-2.5,3.67,0
11.9,-0.934,-2.45,-3.1,4.06,0
12.0,-1.11,-2.31,-3.38,4.24,0
12.0,-1.35,-2.1,-3.43,4.24,0
12.0,-1.55,-1.91,-3.33,4.14,0
12.0,-1.55,-1.77,-3.13,3.92,0
12.0,-1.46,-1.68,-2.81,3.59,0
12.0,-1.33,-1.55,-2.39,3.15,0
12.0,-1.29,-1.43,-2.01,2.79,0
12.0,-1.4,-1.4,-1.78,2.66,0
12.0,-1.7,-1.49,-1.6,2.77,0
12.0,-1.95,-1.5,-1.4,2.83,0
12.1,-2.08,-1.4,-1.16,2.76,0
12.1,-2.09,-1.24,-0.939,2.61,0
12.1,-2.12,-1.08,-0.771,2.5,0
12.1,-2.04,-0.86,-0.706,2.33,0
12.1,-1.93,-0.596,-0.88,2.21,0
12.1,-1.7,-0.349,-1.22,2.12,0
12.1,-1.32,-0.00964,-1.37,1.91,0
12.1,-0.772,0.422,-1.25,1.53,0
12.1,-0.185,0.825,-0.878,1.22,0
12.1,0.122,1.13,-0.578,1.28,0
12.2,0.224,1.34,-0.0951,1.36,0
12.2,0.25,1.54,0.357,1.61,0
12.2,0.209,1.79,0.661,1.92,0
12.2,0.235,2.06,1.04,2.31,0
12.2,0.525,2.36,1.49,2.84,0
12.2,1.11,2.83,2.06,3.67,0
12.2,1.6,3.34,2.57,4.5,0
12.2,1.55,3.63,2.65,4.75,0
12.2,0.865,3.62,2.18,4.32,0
12.2,0.102,3.4,1.6,3.76,0
12.3,-0.387,3.25,1.21,3.49,0
12.3,-0.251,3.22,1.06,3.4,0
12.3,1.09,3.45,1.45,3.89,0
12.3,3.15,3.74,2.16,5.35,0
12.3,4.91,3.85,2.7,6.79,0
12.3,5.51,3.62,3.01,7.25,0
12.3,4.31,2.67,2.73,5.76,0
12.3,1.75,1.25,1.88,2.85,0
12.3,-0.571,0.0728,1.14,1.27,0
12.3,-2.2,-0.758,0.736,2.44,0
12.4,-3.02,-1.23,0.683,3.33,0
12.4,-2.92,-1.32,1.06,3.38,0
12.4,-2.01,-1.18,1.59,2.82,0
12.4,-1.11,-0.998,1.81,2.34,0
12.4,-0.418,-0.887,1.74,2.0,0
12.4,0.0124,-0.908,1.57,1.81,0
12.4,0.053,-1.02,1.25,1.62,0
12.4,-0.428,-1.29,0.784,1.57,0
12.4,-1.31,-1.74,0.385,2.21,0
12.4,-2.02,-2.23,0.133,3.01,0
12.5,-2.5,-2.55,-0.0125,3.58,0
12.5,-2.93,-2.68,-0.159,3.98,0
12.5,-3.19,-2.77,-0.319,4.24,0
12.5,-3.11,-2.73,-0.37,4.16,0
12.5,-2.95,-2.58,-0.394,3.94,0
12.5,-2.82,-2.42,-0.536,3.75,0
12.5,-2.67,-2.34,-0.678,3.61,0
12.5,-2.58,-2.19,-0.751,3.47,0
12.5,-2.44,-2.0,-0.83,3.26,0
12.5,-2.3,-1.75,-0.873,3.02,0
12.6,-2.15,-1.5,-0.867,2.76,0
12.6,-1.93,-1.26,-0.745,2.43,0
12.6,-1.72,-1.1,-0.736,2.17,0
12.6,-1.66,-0.985,-0.756,2.07,0
12.6,-1.58,-0.885,-0.818,1.99,0
12.6,-1.16,-0.732,-0.7,1.54,0
12.6,-0.237,-0.338,-0.277,0.498,0
12.6,0.488,0.0979,0.16,0.522,0
12.6,0.91,0.409,0.539,1.13,0
12.6,1.11,0.616,0.88,1.54,0
12.7,1.21,0.674,1.11,1.77,0
12.7,1.25,0.723,1.26,1.92,0
12.7,1.65,0.773,1.5,2.36,0
12.7,2.38,0.855,1.7,3.04,0
12.7,3.04,1.23,1.61,3.66,0
12.7,3.46,1.56,1.34,4.02,0
12.7,3.29,1.56,0.883,3.75,0
12.7,2.21,1.43,0.438,2.67,0
12.7,0.998,1.29,0.0365,1.63,0
12.7,0.25,1.35,-0.0667,1.37,0
12.8,0.209,1.58,0.0478,1.6,0
12.8,0.983,2.14,0.132,2.36,0
12.8,2.55,2.81,0.351,3.81,0
12.8,4.47,3.29,0.725,5.6,0
12.8,5.83,3.52,0.921,6.87,0
12.8,6.25,3.18,1.0,7.08,0
12.8,5.88,2.39,0.874,6.41,0
12.8,4.64,1.48,0.773,4.93,0
12.8,3.12,0.482,0.811,3.26,0
12.8,1.76,-0.569,0.814,2.02,0
12.9,0.539,-1.37,0.6,1.59,0
12.9,-0.175,-1.88,0.269,1.91,0
12.9,-0.381,-2.08,-0.152,2.12,0
12.9,-0.443,-2.09,-0.629,2.23,0
12.9,-0.56,-2.08,-1.23,2.48,0
12.9,-0.617,-2.03,-1.95,2.88,0
12.9,-0.717,-1.92,-2.57,3.28,0
12.9,-0.914,-1.81,-2.87,3.51,0
12.9,-1.25,-1.81,-2.94,3.67,0
12.9,-1.63,-1.88,-2.77,3.72,0
13.0,-1.88,-1.91,-2.64,3.76,0
13.0,-1.98,-1.96,-2.53,3.76,0
13.0,-2.05,-2.03,-2.2,3.62,0
13.0,-2.14,-2.11,-1.84,3.53,0
13.0,-2.09,-2.1,-1.41,3.28,0
13.0,-2.08,-2.01,-1.12,3.1,0
13.0,-2.33,-1.98,-1.05,3.23,0
13.0,-2.59,-1.97,-1.05,3.43,0
13.0,-2.68,-1.85,-1.06,3.42,0
13.0,-2.66,-1.54,-1.13,3.27,0
13.1,-2.43,-1.2,-1.23,2.98,0
13.1,-2.08,-0.897,-1.23,2.58,0
13.1,-1.67,-0.544,-1.14,2.09,0
13.1,-1.19,-0.192,-1.08,1.62,0
13.1,-0.685,0.156,-1.01,1.23,0
13.1,-0.174,0.47,-0.923,1.05,0
13.1,0.156,0.795,-0.702,1.07,0
13.1,0.4,1.03,-0.351,1.16,0
13.1,0.508,1.25,0.0897,1.35,0
13.1,0.488,1.42,0.614,1.62,0
13.2,0.333,1.56,1.17,1.98,0
13.2,0.359,1.7,1.71,2.44,0
13.2,0.766,2.06,2.37,3.23,0
13.2,1.27,2.43,2.71,3.86,0
13.2,1.63,2.71,2.71,4.17,0
13.2,1.56,2.91,2.32,4.04,0
13.2,0.745,2.85,1.48,3.3,0
13.2,-0.182,2.7,0.757,2.81,0
13.2,-0.573,2.75,0.282,2.82,0
13.2,-0.0718,2.89,0.48,2.93,0
13.3,1.32,3.12,1.17,3.58,0
13.3,3.18,3.48,1.93,5.1,0
13.3,4.79,3.5,2.54,6.45,0
13.3,5.29,3.15,2.63,6.7,0
13.3,4.0,2.35,2.14,5.11,0
13.3,1.73,1.27,1.3,2.51,0
13.3,-0.267,0.244,0.688,0.777,0
13.3,-1.61,-0.488,0.451,1.74,0
13.3,-2.15,-0.808,0.5,2.35,0
13.3,-1.79,-0.811,0.818,2.13,0
13.4,-1.05,-0.805,1.09,1.71,0
13.4,-0.546,-0.921,1.01,1.47,0
13.4,-0.0103,-0.985,0.806,1.27,0
13.4,0.573,-0.943,0.679,1.3,0
13.4,0.798,-0.906,0.576,1.34,0
13.4,0.583,-1.04,0.307,1.23,0
13.4,0.0434,-1.33,0.0938,1.34,0
13.4,-0.638,-1.73,0.00644,1.84,0
13.4,-1.32,-2.12,-0.0353,2.5,0
13.4,-1.95,-2.49,-0.171,3.17,0
13.5,-2.43,-2.69,-0.308,3.63,0
13.5,-2.73,-2.73,-0.375,3.88,0
13.5,-2.88,-2.72,-0.408,3.99,0
13.5,-2.99,-2.71,-0.459,4.06,0
13.5,-3.02,-2.65,-0.494,4.05,0
13.5,-3.04,-2.56,-0.654,4.03,0
13.5,-2.99,-2.41,-0.876,3.94,0
13.5,-2.76,-2.17,-1.06,3.67,0
13.5,-2.48,-1.9,-1.2,3.35,0
13.5,-2.21,-1.63,-1.27,3.03,0
13.6,-1.91,-1.39,-1.24,2.67,0
13.6,-1.63,-1.14,-1.06,2.26,0
13.6,-1.37,-0.897,-0.78,1.81,0
13.6,-1.04,-0.678,-0.614,1.38,0
13.6,-0.844,-0.438,-0.511,1.08,0
13.6,-0.599,-0.185,-0.256,0.677,0
13.6,-0.252,0.0747,0.00886,0.263,0
13.6,0.0276,0.384,0.379,0.54,0
13.6,0.533,0.812,0.848,1.29,0
13.6,1.28,1.35,1.37,2.31,0
13.7,2.05,1.78,1.85,3.29,0
13.7,2.38,1.94,1.91,3.62,0
13.7,2.33,1.94,1.42,3.35,0
13.7,2.12,1.91,0.741,2.95,0
13.7,1.58,2.02,0.1,2.57,0
13.7,0.942,2.17,-0.585,2.44,0
13.7,0.438,2.4,-1.13,2.69,0
13.7,-0.104,2.59,-1.47,2.98,0
13.7,-0.434,2.54,-1.54,3.0,0
13.7,-0.332,2.4,-1.29,2.75,0
13.8,0.633,2.47,-0.546,2.61,0
13.8,2.93,2.89,0.431,4.14,0
13.8,5.52,3.26,1.25,6.53,0
13.8,7.42,3.34,1.76,8.33,0
13.8,7.68,2.92,1.99,8.46,0
13.8,5.97,1.75,1.67,6.44,0
13.8,3.33,0.264,1.02,3.5,0
13.8,1.34,-0.921,0.574,1.73,0
13.8,0.0676,-1.63,0.486,1.7,0
13.8,-0.328,-1.93,0.76,2.1,0
13.9,-0.0245,-1.89,1.06,2.17,0
13.9,0.454,-1.83,0.98,2.12,0
13.9,0.697,-1.82,0.323,1.97,0
13.9,0.801,-1.7,-0.449,1.93,0
13.9,0.783,-1.6,-1.08,2.08,0
13.9,0.6,-1.56,-1.61,2.32,0
13.9,0.1,-1.65,-1.89,2.51,0
13.9,-0.518,-1.9,-2.0,2.81,0
13.9,-1.13,-2.16,-1.99,3.15,0
14.0,-1.53,-2.35,-1.91,3.4,0
14.0,-1.67,-2.48,-1.71,3.44,0
14.0,-1.77,-2.5,-1.47,3.39,0
14.0,-1.84,-2.51,-1.24,3.35,0
14.0,-1.87,-2.56,-1.12,3.36,0
14.0,-1.98,-2.49,-1.05,3.35,0
14.0,-2.13,-2.32,-1.06,3.32,0
14.0,-2.13,-2.19,-1.18,3.27,0
14.0,-1.99,-1.9,-1.21,3.01,0
14.0,-1.9,-1.59,-1.26,2.78,0
14.1,-1.73,-1.33,-1.26,2.52,0
14.1,-1.61,-1.06,-1.19,2.26,0
14.1,-1.49,-0.79,-1.14,2.03,0
14.1,-1.23,-0.517,-1.04,1.7,0
14.1,-0.913,-0.235,-1.02,1.39,0
14.1,-0.665,0.0757,-0.951,1.16,0
14.1,-0.396,0.391,-0.686,0.884,0
14.1,-0.113,0.745,-0.179,0.775,0
14.1,0.0733,1.05,0.306,1.09,0
14.1,0.258,1.32,0.768,1.55,0
14.2,0.478,1.62,1.17,2.05,0
14.2,0.595,1.93,1.37,2.44,0
14.2,0.795,2.25,1.49,2.81,0
14.2,1.36,2.61,1.69,3.39,0
14.2,2.08,3.04,1.84,4.12,0
14.2,2.56,3.43,1.65,4.58,0
14.2,2.29,3.49,1.09,4.32,0
14.2,1.21,3.21,0.455,3.46,0
14.2,0.163,2.93,-0.0639,2.93,0
14.2,-0.184,2.85,-0.263,2.87,0
14.3,0.321,2.9,-0.0674,2.92,0
14.3,1.6,3.05,0.512,3.48,0
14.3,3.06,3.07,1.02,4.45,0
14.3,4.29,2.86,1.44,5.35,0
14.3,4.35,2.47,1.7,5.28,0
14.3,2.78,1.6,1.42,3.51,0
14.3,0.623,0.425,0.922,1.19,0
14.3,-1.22,-0.571,0.472,1.43,0
14.3,-2.58,-1.08,0.294,2.82,0
14.3,-3.18,-1.32,0.365,3.46,0
14.4,-2.86,-1.27,0.71,3.21,0
14.4,-1.67,-0.95,1.16,2.24,0
14.4,-0.619,-0.681,1.3,1.59,0
14.4,0.195,-0.501,1.25,1.36,0
14.4,0.712,-0.398,1.11,1.38,0
14.4,0.755,-0.447,0.786,1.18,0
14.4,0.352,-0.685,0.455,0.895,0
14.4,-0.47,-1.08,0.0666,1.18,0
14.4,-1.25,-1.53,-0.273,1.99,0
14.4,-1.88,-1.87,-0.456,2.69,0
14.5,-2.32,-2.12,-0.561,3.2,0
14.5,-2.56,-2.28,-0.533,3.47,0
14.5,-2.7,-2.37,-0.489,3.62,0
14.5,-2.82,-2.42,-0.552,3.76,0
14.5,-2.92,-2.47,-0.716,3.89,0
14.5,-2.97,-2.47,-0.986,3.99,0
14.5,-3.03,-2.47,-1.23,4.1,0
14.5,-3.03,-2.38,-1.26,4.05,0
14.5,-3.11,-2.22,-1.39,4.07,0
14.5,-3.24,-2.11,-1.58,4.18,0
14.6,-3.27,-1.93,-1.71,4.16,0
14.6,-3.01,-1.65,-1.84,3.9,0
14.6,-2.53,-1.26,-1.95,3.44,0
14.6,-1.78,-0.798,-1.79,2.65,0
14.6,-0.992,-0.373,-1.56,1.89,0
14.6,-0.3,0.0367,-1.35,1.38,0
14.6,0.364,0.494,-0.915,1.1,0
14.6,0.883,0.878,-0.469,1.33,0
14.6,1.19,1.13,0.0494,1.65,0
14.6,1.43,1.25,0.91,2.11,0
14.7,1.6,1.31,1.74,2.7,0
14.7,1.86,1.43,2.35,3.32,0
14.7,2.27,1.63,2.77,3.94,0
14.7,2.61,1.8,2.64,4.12,0
14.7,2.82,2.05,2.06,4.05,0
14.7,2.77,2.29,1.39,3.86,0
14.7,2.29,2.47,0.924,3.49,0
14.7,1.56,2.51,0.564,3.0,0
14.7,0.921,2.41,0.0959,2.58,0
14.7,0.712,2.31,-0.295,2.44,0
14.8,0.862,2.32,-0.524,2.53,0
14.8,1.96,2.39,-0.356,3.11,0
14.8,3.87,2.55,0.207,4.64,0
14.8,5.77,2.82,0.7,6.46,0
14.8,6.81,2.89,1.0,7.47,0
14.8,6.3,2.39,0.924,6.8,0
14.8,4.58,1.3,0.483,4.79,0
14.8,2.69,0.0679,0.0759,2.69,0
14.8,1.37,-0.684,-0.014,1.53,0
14.8,0.718,-1.01,0.0313,1.24,0
14.9,0.708,-1.02,0.138,1.25,0
14.9,1.03,-0.888,0.236,1.38,0
14.9,1.15,-0.865,-0.0145,1.44,0
14.9,0.969,-0.894,-0.573,1.44,0
14.9,0.879,-0.817,-1.19,1.69,0
14.9,0.709,-0.653,-1.77,2.02,0
14.9,0.804,-0.457,-2.03,2.23,0
14.9,0.933,-0.5,-1.85,2.13,0
14.9,0.876,-0.705,-1.6,1.96,0
14.9,0.423,-0.861,-2.37,2.56,0
15.0,-1.53,-0.486,-1.44,2.15,0
15.0,-0.0803,-1.25,-2.38,2.69,0
15.0,-0.571,-0.955,-2.36,2.61,0
15.0,-0.885,-0.922,-2.46,2.77,0
15.0,-1.03,-1.1,-2.69,3.08,0
15.0,-1.38,-1.23,-2.34,2.98,0
15.0,-1.67,-1.23,-1.62,2.63,0
15.0,-1.88,-1.51,-1.86,3.05,0
15.0,-1.78,-1.56,-2.36,3.34,0
15.0,-1.44,-1.19,-2.71,3.29,0
15.1,-0.922,-1.04,-2.81,3.13,0
15.1,-0.53,-0.889,-2.45,2.66,0
15.1,-0.246,-0.597,-2.05,2.15,0
15.1,-0.28,-0.394,-1.83,1.89,0
15.1,-0.267,-0.284,-1.71,1.75,0
15.1,-0.17,-0.208,-1.68,1.7,0
15.1,-0.139,-0.121,-1.54,1.55,0
15.1,-0.341,0.024,-1.1,1.15,0
15.1,-0.713,0.242,-0.515,0.912,0
15.1,-0.794,0.315,0.404,0.945,0
15.2,-0.646,0.426,1.63,1.81,0
15.2,-0.513,0.515,2.88,2.97,0
15.2,-0.49,0.515,3.81,3.88,0
15.2,-0.525,0.431,4.32,4.37,0
15.2,-0.535,0.297,4.39,4.43,0
15.2,-0.566,0.285,4.02,4.07,0
15.2,-0.64,0.54,3.26,3.37,0
15.2,-0.82,0.957,2.37,2.68,0
15.2,-1.14,1.28,1.33,2.17,0
15.2,-1.33,1.41,0.545,2.02,0
15.3,-1.31,1.49,0.202,1.99,0
15.3,-0.837,1.45,0.843,1.87,0
15.3,-0.0337,1.13,2.2,2.47,0
15.3,0.727,0.77,3.42,3.58,0
15.3,1.01,0.58,3.99,4.16,0
15.3,0.683,0.32,3.6,3.68,0
15.3,0.0223,-0.0222,2.31,2.31,0
15.3,-0.683,-0.302,0.8,1.09,0
15.3,-1.23,-0.554,-0.224,1.37,0
15.3,-1.52,-0.818,-0.724,1.87,0
15.4,-1.54,-1.03,-0.994,2.1,0
15.4,-1.22,-1.2,-1.07,2.02,0
15.4,-0.556,-1.26,-0.853,1.62,0
15.4,0.135,-1.17,-0.471,1.27,0
15.4,0.564,-1.03,-0.359,1.23,0
15.4,0.747,-0.948,-0.514,1.31,0
15.4,0.634,-0.971,-0.923,1.48,0
15.4,0.186,-0.997,-1.63,1.92,0
15.4,-0.472,-1.03,-2.35,2.61,0
15.4,-1.12,-1.01,-2.85,3.22,0
15.5,-1.64,-1.03,-3.1,3.66,0
15.5,-1.85,-0.989,-3.04,3.7,0
15.5,-1.72,-0.901,-2.67,3.3,0
15.5,-1.37,-0.753,-2.09,2.61,0
15.5,-0.984,-0.672,-1.47,1.9,0
15.5,-0.625,-0.652,-1.05,1.39,0
15.5,-0.382,-0.545,-0.882,1.1,0
15.5,-0.196,-0.442,-0.961,1.08,0
15.5,-0.105,-0.399,-1.39,1.45,0
15.5,-0.292,-0.391,-2.0,2.06,0
15.6,-0.552,-0.485,-2.52,2.63,0
15.6,-0.681,-0.557,-2.7,2.84,0
15.6,-0.683,-0.596,-2.5,2.66,0
15.6,-0.473,-0.648,-2.26,2.4,0
15.6,-0.206,-0.62,-1.96,2.06,0
15.6,-0.00281,-0.582,-1.72,1.81,0
15.6,0.146,-0.588,-1.49,1.61,0
15.6,0.208,-0.498,-1.12,1.24,0
15.6,0.222,-0.26,-1.04,1.09,0
15.6,0.242,0.0611,-1.04,1.07,0
15.7,0.262,0.375,-0.832,0.949,0
15.7,0.284,0.492,-0.117,0.58,0
15.7,0.633,0.466,0.962,1.24,0
15.7,0.981,0.424,2.14,2.39,0
15.7,1.19,0.378,3.08,3.32,0
15.7,1.31,0.502,3.92,4.16,0
15.7,1.27,0.944,4.2,4.49,0
15.7,0.941,1.4,3.54,3.92,0
15.7,0.435,1.54,2.45,2.92,0
15.7,0.0956,1.43,1.5,2.07,0
15.8,0.413,1.21,1.41,1.9,0
15.8,1.59,1.04,2.45,3.09,0
15.8,2.98,0.846,3.81,4.91,0
15.8,3.97,0.737,4.75,6.23,0
15.8,4.28,0.667,4.85,6.5,0
15.8,3.59,0.232,3.76,5.2,0
15.8,2.38,-0.383,2.07,3.18,0
15.8,1.32,-0.876,0.678,1.72,0
15.8,0.541,-1.22,-0.432,1.41,0
15.8,0.17,-1.3,-1.01,1.66,0
15.9,0.143,-1.21,-1.06,1.61,0
15.9,0.603,-1.03,-0.679,1.37,0
15.9,1.34,-0.743,-0.14,1.54,0
15.9,1.8,-0.481,0.0975,1.86,0
15.9,1.99,-0.345,-0.143,2.02,0
15.9,1.87,-0.261,-0.722,2.02,0
15.9,1.47,-0.229,-1.42,2.06,0
15.9,1.0,-0.308,-1.91,2.18,0
15.9,0.708,-0.448,-2.09,2.26,0
15.9,0.501,-0.545,-2.2,2.32,0
16.0,0.342,-0.557,-2.33,2.42,0
16.0,0.15,-0.657,-2.57,2.65,0
16.0,-0.0019,-0.726,-2.8,2.89,0
16.0,-0.143,-0.787,-3.07,3.17,0
16.0,-0.375,-0.86,-3.27,3.4,0
16.0,-0.708,-0.954,-3.36,3.57,0
16.0,-1.04,-1.06,-3.34,3.66,0
16.0,-1.33,-1.17,-3.23,3.68,0
16.0,-1.54,-1.16,-2.95,3.52,0
16.0,-1.6,-1.06,-2.58,3.22,0
16.1,-1.7,-0.907,-2.35,3.04,0
16.1,-1.73,-0.729,-2.33,2.99,0
16.1,-1.53,-0.535,-2.36,2.86,0
16.1,-1.34,-0.257,-2.33,2.7,0
16.1,-1.23,0.019,-2.23,2.55,0
16.1,-1.13,0.294,-1.8,2.15,0
16.1,-1.1,0.566,-1.2,1.73,0
16.1,-0.898,0.925,-0.744,1.49,0
16.1,-0.572,1.41,0.049,1.52,0
16.1,-0.271,1.66,0.945,1.93,0
16.2,0.0805,1.73,1.54,2.32,0
16.2,0.289,1.78,2.16,2.82,0
16.2,0.247,1.78,2.96,3.46,0
16.2,-0.0231,1.72,3.64,4.03,0
16.2,-0.339,1.67,4.05,4.39,0
16.2,-0.659,1.77,4.05,4.47,0
16.2,-0.889,1.98,3.73,4.31,0
16.2,-0.933,2.06,3.44,4.12,0
16.2,-0.879,1.82,3.32,3.89,0
16.2,-0.528,1.47,3.59,3.92,0
16.3,0.0726,0.977,4.56,4.66,0
16.3,0.745,0.289,6.04,6.09,0
16.3,1.16,-0.429,7.35,7.45,0
16.3,0.965,-1.04,7.52,7.65,0
16.3,0.174,-1.47,6.1,6.28,0
16.3,-0.765,-1.47,3.81,4.15,0
16.3,-1.43,-1.12,1.29,2.23,0
16.3,-1.83,-0.757,-0.882,2.16,0
16.3,-1.81,-0.447,-2.08,2.8,0
16.3,-1.52,-0.285,-2.38,2.84,0
16.4,-1.15,-0.235,-1.93,2.26,0
16.4,-0.761,-0.276,-1.12,1.38,0
16.4,-0.468,-0.42,-0.5,0.803,0
16.4,-0.373,-0.563,-0.408,0.789,0
16.4,-0.452,-0.674,-0.655,1.04,0
16.4,-0.616,-0.748,-1.08,1.45,0
16.4,-0.779,-0.884,-1.56,1.96,0
16.4,-0.808,-0.973,-1.91,2.29,0
16.4,-0.867,-0.958,-2.13,2.49,0
16.4,-0.996,-0.961,-2.3,2.68,0
16.5,-1.13,-0.998,-2.42,2.85,0
16.5,-1.23,-1.06,-2.51,2.99,0
16.5,-1.29,-1.12,-2.64,3.15,0
16.5,-1.26,-1.16,-2.71,3.21,0
16.5,-1.24,-1.08,-2.8,3.25,0
16.5,-1.23,-0.922,-3.06,3.42,0
16.5,-1.21,-0.792,-3.38,3.68,0
16.5,-1.18,-0.669,-3.48,3.74,0
16.5,-1.33,-0.603,-3.44,3.74,0
16.5,-1.48,-0.597,-3.24,3.61,0
16.6,-1.49,-0.593,-2.92,3.33,0
16.6,-1.43,-0.501,-2.58,2.99,0
16.6,-1.18,-0.346,-2.25,2.56,0
16.6,-0.887,-0.137,-1.8,2.01,0
16.6,-0.477,-0.000909,-1.2,1.3,0
16.6,-0.0579,0.0284,-0.479,0.484,0
16.6,0.24,0.058,0.261,0.359,0
16.6,0.378,0.199,0.922,1.02,0
16.6,0.356,0.394,1.26,1.37,0
16.6,0.144,0.517,1.21,1.32,0
16.7,-0.136,0.531,1.09,1.22,0
16.7,-0.0704,0.509,1.35,1.45,0
16.7,0.403,0.605,1.91,2.04,0
16.7,1.08,0.862,2.67,3.0,0
16.7,1.6,1.25,3.47,4.02,0
16.7,1.69,1.7,3.74,4.44,0
16.7,1.47,2.04,3.3,4.15,0
16.7,1.08,2.2,2.45,3.47,0
16.7,0.699,2.24,1.37,2.72,0
16.7,1.01,2.09,0.968,2.51,0
16.8,2.23,1.6,2.26,3.56,0
16.8,3.89,0.892,4.53,6.04,0
16.8,5.2,0.395,6.87,8.63,0
16.8,5.45,0.0681,8.06,9.73,0
16.8,4.39,-0.475,7.03,8.3,0
16.8,2.71,-1.18,4.8,5.64,0
16.8,1.19,-1.85,2.55,3.37,0
16.8,-0.0381,-2.38,0.908,2.55,0
16.8,-0.758,-2.71,-0.092,2.82,0
16.8,-0.84,-2.68,-0.672,2.89,0
16.9,-0.553,-2.41,-1.13,2.72,0
16.9,-0.128,-2.05,-1.64,2.63,0
16.9,0.445,-1.7,-2.23,2.84,0
16.9,0.986,-1.33,-2.74,3.2,0
16.9,1.43,-0.931,-3.19,3.62,0
16.9,1.6,-0.555,-3.61,3.99,0
16.9,1.62,-0.305,-3.99,4.31,0
16.9,1.5,-0.193,-4.18,4.45,0
16.9,1.22,-0.146,-4.26,4.43,0
16.9,0.977,-0.0963,-4.23,4.34,0
17.0,0.817,-0.0182,-4.01,4.1,0
17.0,0.7,0.048,-3.6,3.67,0
17.0,0.673,0.0334,-3.28,3.35,0
17.0,0.603,0.0577,-3.25,3.3,0
17.0,0.354,0.0895,-3.34,3.36,0
17.0,0.0245,0.0553,-3.34,3.34,0
17.0,-0.475,-0.0973,-3.36,3.39,0
17.0,-0.927,-0.245,-3.37,3.5,0
17.0,-1.1,-0.246,-3.3,3.49,0
17.0,-1.17,-0.15,-3.25,3.45,0
17.1,-1.18,-0.0297,-3.3,3.51,0
17.1,-1.01,0.125,-3.16,3.32,0
17.1,-0.648,0.32,-2.58,2.68,0
17.1,-0.36,0.475,-1.71,1.81,0
17.1,-0.226,0.468,-0.609,0.801,0
17.1,-0.151,0.443,0.456,0.654,0
17.1,-0.251,0.429,1.37,1.46,0
17.1,-0.548,0.438,2.01,2.13,0
17.1,-1.0,0.433,2.26,2.51,0
17.1,-1.42,0.378,2.36,2.78,0
17.2,-1.57,0.426,2.61,3.08,0
17.2,-1.38,0.63,3.05,3.41,0
17.2,-1.08,0.871,3.48,3.74,0
17.2,-0.757,1.22,3.87,4.13,0
17.2,-0.673,1.65,3.83,4.22,0
17.2,-0.878,1.99,3.03,3.73,0
17.2,-0.974,2.23,2.17,3.26,0
17.2,-0.894,2.52,1.56,3.09,0
17.2,-0.447,2.54,1.36,2.92,0
17.2,0.518,2.27,2.3,3.27,0
17.3,1.73,1.78,4.16,4.85,0
17.3,2.56,1.31,6.18,6.81,0
17.3,2.66,0.888,7.54,8.04,0
17.3,1.83,0.325,7.18,7.42,0
17.3,0.432,-0.415,5.01,5.05,0
17.3,-0.937,-0.941,2.21,2.58,0
17.3,-1.97,-1.24,-0.155,2.34,0
17.3,-2.38,-1.3,-1.63,3.17,0
17.3,-2.28,-1.2,-2.25,3.41,0
17.3,-1.73,-1.04,-2.01,2.85,0
17.4,-0.907,-0.85,-1.16,1.7,0
17.4,-0.259,-0.724,-0.368,0.853,0
17.4,0.0984,-0.679,-0.136,0.7,0
17.4,0.197,-0.629,-0.11,0.669,0
17.4,0.00271,-0.713,-0.225,0.748,0
17.4,-0.434,-0.974,-0.754,1.31,0
17.4,-0.84,-1.22,-1.39,2.03,0
17.4,-1.12,-1.36,-1.88,2.58,0
17.4,-1.33,-1.42,-2.2,2.94,0
17.4,-1.4,-1.43,-2.4,3.13,0
17.5,-1.35,-1.38,-2.37,3.06,0
17.5,-1.39,-1.37,-2.24,2.97,0
17.5,-1.33,-1.36,-2.2,2.91,0
17.5,-1.34,-1.29,-2.33,2.98,0
17.5,-1.39,-1.25,-2.52,3.14,0
17.5,-1.5,-1.21,-2.77,3.37,0
17.5,-1.57,-1.13,-3.06,3.62,0
17.5,-1.6,-1.02,-3.32,3.82,0
17.5,-1.49,-0.835,-3.46,3.86,0
17.5,-1.39,-0.686,-3.38,3.72,0
17.6,-1.24,-0.589,-3.07,3.36,0
17.6,-0.925,-0.454,-2.66,2.85,0
17.6,-0.618,-0.311,-2.26,2.36,0
17.6,-0.287,-0.21,-1.75,1.79,0
17.6,0.0509,-0.11,-1.17,1.18,0
17.6,0.122,0.012,-0.73,0.74,0
17.6,0.0501,0.0465,-0.482,0.487,0
17.6,0.0308,0.0228,-0.298,0.3,0
17.6,0.179,0.145,-0.057,0.237,0
17.6,0.507,0.406,0.212,0.683,0
17.7,1.01,0.661,0.703,1.4,0
17.7,1.6,0.866,1.39,2.29,0
17.7,2.06,1.06,1.86,2.98,0
17.7,2.35,1.32,2.09,3.41,0
17.7,2.32,1.67,2.28,3.65,0
17.7,2.07,1.98,2.18,3.6,0
17.7,1.83,2.04,1.83,3.29,0
17.7,1.85,1.94,1.6,3.12,0
17.7,2.13,1.81,1.86,3.35,0
17.7,2.66,1.66,2.83,4.22,0
17.8,3.1,1.33,4.09,5.3,0
17.8,3.34,0.814,5.27,6.29,0
17.8,3.17,0.202,5.86,6.66,0
17.8,2.46,-0.405,5.51,6.04,0
17.8,1.49,-0.92,4.41,4.74,0
17.8,0.589,-1.28,2.96,3.28,0
17.8,-0.261,-1.53,1.7,2.3,0
17.8,-0.783,-1.67,0.788,2.01,0
17.8,-0.932,-1.73,0.235,1.98,0
17.8,-0.834,-1.6,-0.111,1.8,0
17.9,-0.423,-1.33,-0.392,1.45,0
17.9,0.109,-0.995,-0.63,1.18,0
17.9,0.441,-0.653,-0.946,1.23,0
17.9,0.485,-0.428,-1.41,1.55,0
17.9,0.399,-0.347,-1.95,2.02,0
17.9,0.176,-0.291,-2.35,2.37,0
17.9,-0.0601,-0.207,-2.56,2.57,0
17.9,-0.23,-0.18,-2.77,2.78,0
17.9,-0.383,-0.24,-2.74,2.78,0
17.9,-0.378,-0.34,-2.43,2.48,0
18.0,-0.382,-0.351,-2.17,2.23,0
18.0,-0.45,-0.409,-2.02,2.11,0
18.0,-0.548,-0.536,-1.99,2.13,0
18.0,-0.628,-0.626,-2.14,2.32,0
18.0,-0.735,-0.628,-2.26,2.46,0
18.0,-0.956,-0.666,-2.28,2.56,0
18.0,-1.18,-0.709,-2.4,2.76,0
18.0,-1.36,-0.706,-2.61,3.02,0
18.0,-1.47,-0.682,-2.75,3.19,0
18.0,-1.57,-0.635,-3.02,3.46,0
18.1,-1.48,-0.64,-3.26,3.63,0
18.1,-1.38,-0.537,-3.13,3.47,0
18.1,-1.11,-0.413,-2.78,3.02,0
18.1,-0.778,-0.225,-2.24,2.38,0
18.1,-0.424,-0.0117,-1.61,1.67,0
18.1,-0.162,0.204,-0.793,0.834,0
18.1,0.0933,0.442,0.294,0.539,0
18.1,0.179,0.622,1.11,1.29,0
18.1,0.0634,0.759,1.53,1.71,0
18.1,-0.128,0.893,1.82,2.03,0
18.2,-0.333,0.992,2.0,2.26,0
18.2,-0.463,1.17,2.1,2.45,0
18.2,-0.397,1.49,2.33,2.79,0
18.2,-0.115,1.84,2.75,3.3,0
18.2,0.273,2.06,3.24,3.85,0
18.2,0.513,2.3,3.46,4.18,0
18.2,0.349,2.56,3.05,3.99,0
18.2,0.0771,2.63,2.28,3.48,0
18.2,-0.0636,2.57,1.8,3.14,0
18.2,-0.113,2.48,2.03,3.21,0
18.3,0.0602,2.29,2.94,3.73,0
18.3,0.287,1.93,3.86,4.32,0
18.3,0.238,1.37,4.44,4.66,0
18.3,-0.114,0.787,4.59,4.66,0
18.3,-0.645,0.277,4.05,4.11,0
18.3,-1.1,-0.0102,2.9,3.1,0
18.3,-1.35,-0.0582,1.7,2.17,0
18.3,-1.47,-0.00925,0.747,1.65,0
18.3,-1.25,0.00638,0.337,1.29,0
18.3,-0.638,-0.0758,0.424,0.77,0
18.4,-0.0238,-0.237,0.742,0.779,0
18.4,0.286,-0.462,1.02,1.15,0
18.4,0.399,-0.809,1.15,1.46,0
18.4,0.324,-1.21,1.19,1.72,0
18.4,0.177,-1.56,1.07,1.9,0
18.4,-0.174,-1.82,0.458,1.88,0
18.4,-0.465,-2.06,-0.53,2.17,0
18.4,-0.714,-2.19,-1.5,2.75,0
18.4,-1.08,-2.22,-2.42,3.46,0
18.4,-1.37,-2.25,-3.26,4.19,0
18.5,-1.5,-2.23,-3.84,4.69,0
18.5,-1.5,-2.16,-4.06,4.83,0
18.5,-1.52,-1.97,-3.99,4.71,0
18.5,-1.52,-1.84,-3.56,4.29,0
18.5,-1.38,-1.8,-2.84,3.63,0
18.5,-1.18,-1.68,-2.52,3.25,0
18.5,-1.06,-1.45,-2.63,3.18,0
18.5,-1.01,-1.23,-2.88,3.29,0
18.5,-1.02,-1.04,-3.21,3.52,0
18.5,-0.997,-0.86,-3.41,3.66,0
18.6,-0.911,-0.716,-3.35,3.55,0
18.6,-0.671,-0.493,-2.87,2.99,0
18.6,-0.501,-0.224,-2.29,2.35,0
18.6,-0.487,-0.0546,-1.69,1.76,0
18.6,-0.465,-0.0469,-0.945,1.05,0
18.6,-0.557,-0.0783,-0.334,0.654,0
18.6,-0.667,-0.0281,-0.139,0.682,0
18.6,-0.698,0.129,-0.0826,0.715,0
18.6,-0.525,0.264,0.182,0.615,0
18.6,-0.118,0.401,0.739,0.849,0
18.7,0.417,0.545,1.44,1.59,0
18.7,0.971,0.718,2.09,2.42,0
18.7,1.49,0.886,2.59,3.12,0
18.7,1.99,1.0,3.02,3.75,0
18.7,2.24,1.18,3.22,4.1,0
18.7,2.23,1.51,3.0,4.03,0
18.7,2.02,1.87,2.45,3.68,0
18.7,1.65,1.98,1.51,2.99,0
18.7,1.54,2.03,0.512,2.6,0
18.7,1.7,2.03,-0.143,2.65,0
18.8,2.25,1.9,-0.0627,2.95,0
18.8,3.3,1.59,1.03,3.81,0
18.8,4.28,1.24,2.35,5.04,0
18.8,4.86,1.03,3.39,6.01,0
18.8,4.72,0.791,3.87,6.16,0
18.8,3.89,0.32,3.7,5.38,0
18.8,2.74,-0.319,2.81,3.94,0
18.8,1.68,-0.938,1.6,2.5,0
18.8,0.672,-1.39,0.489,1.62,0
18.8,-0.0584,-1.63,-0.21,1.65,0
18.9,-0.324,-1.73,-0.431,1.82,0
18.9,-0.241,-1.7,-0.476,1.78,0
18.9,0.203,-1.51,-0.505,1.6,0
18.9,0.776,-1.17,-0.581,1.52,0
18.9,1.27,-0.801,-0.77,1.69,0
18.9,1.45,-0.479,-1.1,1.88,0
18.9,1.34,-0.261,-1.54,2.06,0
18.9,1.03,-0.209,-2.1,2.35,0
18.9,0.55,-0.246,-2.64,2.71,0
18.9,0.147,-0.386,-2.96,2.99,0
19.0,-0.183,-0.479,-3.24,3.28,0
19.0,-0.514,-0.539,-3.49,3.57,0
19.0,-0.845,-0.642,-3.68,3.83,0
19.0,-1.05,-0.738,-3.64,3.86,0
19.0,-1.05,-0.734,-3.19,3.44,0
19.0,-1.02,-0.618,-2.59,2.85,0
19.0,-1.06,-0.574,-2.15,2.47,0
19.0,-1.26,-0.596,-1.94,2.39,0
19.0,-1.52,-0.61,-2.01,2.59,0
19.0,-1.59,-0.518,-2.19,2.76,0
19.1,-1.46,-0.301,-2.3,2.75,0
19.1,-1.11,0.0363,-2.18,2.45,0
19.1,-0.782,0.417,-1.78,1.99,0
19.1,-0.55,0.668,-1.12,1.41,0
19.1,-0.323,0.839,-0.294,0.946,0
19.1,-0.0477,1.02,0.504,1.14,0
19.1,0.137,1.3,1.19,1.77,0
19.1,0.118,1.55,1.46,2.13,0
19.1,-0.168,1.67,1.33,2.14,0
19.1,-0.508,1.63,1.41,2.21,0
19.2,-0.69,1.52,2.06,2.65,0
19.2,-0.675,1.49,3.07,3.48,0
19.2,-0.456,1.51,4.11,4.41,0
19.2,-0.158,1.44,4.87,5.08,0
19.2,0.127,1.41,5.15,5.34,0
19.2,0.128,1.53,4.82,5.06,0
19.2,-0.321,1.66,3.62,4.0,0
19.2,-0.788,1.65,2.07,2.76,0
19.2,-1.17,1.52,0.727,2.05,0
19.2,-1.29,1.12,0.351,1.74,0
19.3,-1.06,0.659,1.37,1.85,0
19.3,-0.618,0.264,3.01,3.08,0
19.3,-0.307,-0.242,3.97,3.98,0
19.3,-0.322,-0.795,3.99,4.08,0
19.3,-0.627,-1.11,3.05,3.31,0
19.3,-0.955,-1.1,1.54,2.12,0
19.3,-1.32,-1.09,-0.00369,1.71,0
19.3,-1.57,-1.06,-1.43,2.37,0
19.3,-1.63,-0.94,-2.45,3.09,0
19.3,-1.54,-0.81,-2.95,3.43,0
19.4,-1.3,-0.77,-3.0,3.36,0
19.4,-0.899,-0.821,-2.4,2.69,0
19.4,-0.341,-0.816,-1.29,1.56,0
19.4,-0.0337,-0.802,-0.365,0.882,0
19.4,0.198,-0.864,0.233,0.916,0
19.4,0.188,-0.951,0.612,1.15,0
19.4,-0.0671,-1.12,0.591,1.26,0
19.4,-0.384,-1.33,0.0842,1.39,0
19.4,-0.649,-1.48,-0.731,1.77,0
19.4,-0.78,-1.49,-1.35,2.16,0
19.5,-0.883,-1.45,-1.65,2.36,0
19.5,-0.88,-1.46,-1.77,2.46,0
19.5,-0.839,-1.41,-1.83,2.46,0
19.5,-0.783,-1.33,-2.0,2.53,0
19.5,-0.77,-1.27,-2.29,2.73,0
19.5,-0.803,-1.21,-2.58,2.96,0
19.5,-0.849,-1.15,-2.9,3.23,0
19.5,-0.853,-1.06,-3.08,3.37,0
19.5,-0.789,-0.968,-2.99,3.24,0
19.5,-0.729,-0.821,-2.91,3.11,0
19.6,-0.68,-0.695,-3.05,3.2,0
19.6,-0.655,-0.622,-3.05,3.18,0
19.6,-0.548,-0.531,-2.84,2.94,0
19.6,-0.47,-0.426,-2.44,2.52,0
19.6,-0.454,-0.322,-1.7,1.78,0
19.6,-0.5,-0.311,-0.916,1.09,0
19.6,-0.545,-0.299,-0.289,0.685,0
19.6,-0.468,-0.182,0.179,0.533,0
19.6,-0.164,-0.0927,0.514,0.547,0
19.6,0.318,0.00927,1.2,1.24,0
19.7,0.805,0.162,2.19,2.34,0
19.7,1.2,0.331,3.09,3.33,0
19.7,1.32,0.377,3.71,3.95,0
19.7,1.25,0.312,3.81,4.02,0
19.7,1.01,0.43,3.29,3.47,0
19.7,0.544,0.836,2.43,2.63,0
19.7,0.07,1.18,1.33,1.78,0
19.7,-0.049,1.34,0.436,1.41,0
19.7,0.192,1.31,0.245,1.35,0
19.7,0.882,1.16,0.737,1.63,0
19.8,1.84,0.912,1.82,2.74,0
19.8,2.67,0.533,3.04,4.08,0
19.8,3.27,0.182,3.87,5.07,0
19.8,3.4,0.0895,4.05,5.29,0
19.8,2.77,0.00248,3.22,4.25,0
19.8,1.72,-0.335,1.51,2.31,0
19.8,0.833,-0.7,-0.0183,1.09,0
19.8,0.241,-1.0,-1.07,1.48,0
19.8,0.0996,-1.14,-1.3,1.74,0
19.8,0.212,-1.09,-0.924,1.44,0
19.9,0.625,-0.949,-0.376,1.2,0
19.9,1.04,-0.806,-0.0442,1.31,0
19.9,1.42,-0.663,0.116,1.57,0
19.9,1.81,-0.401,0.148,1.86,0
19.9,1.94,-0.0926,-0.228,1.96,0
19.9,1.78,0.124,-0.915,2.01,0
19.9,1.35,0.129,-1.54,2.05,0
19.9,0.788,-0.0186,-1.92,2.08,0
19.9,0.305,-0.204,-2.19,2.22,0
19.9,-0.149,-0.404,-2.46,2.5,0
20.0,-0.502,-0.507,-2.7,2.8,0
20.0,-0.808,-0.537,-2.98,3.13,0
20.0,-0.998,-0.588,-3.15,3.36,0
20.0,-1.03,-0.591,-3.14,3.36,0
20.0,-1.04,-0.521,-2.99,3.21,0
20.0,-1.0,-0.431,-2.87,3.07,0
20.0,-0.904,-0.338,-2.64,2.81,0
20.0,-0.965,-0.233,-2.25,2.46,0
20.0,-1.03,-0.196,-2.01,2.26,0
20.0,-0.974,-0.0855,-1.74,2.0,0
20.1,-1.09,0.0931,-1.55,1.9,0
20.1,-1.26,0.166,-1.45,1.93,0
20.1,-1.34,0.283,-1.19,1.81,0
20.1,-1.35,0.501,-0.893,1.7,0
20.1,-1.22,0.772,-0.516,1.53,0
20.1,-0.991,1.15,-0.0532,1.52,0
20.1,-0.708,1.46,0.342,1.66,0
20.1,-0.647,1.62,0.77,1.91,0
20.1,-0.801,1.4,1.34,2.1,0
20.1,-1.03,0.961,2.24,2.64,0
20.2,-1.34,0.618,3.39,3.69,0
20.2,-1.45,0.52,4.43,4.69,0
20.2,-1.28,0.72,4.74,4.96,0
20.2,-1.17,1.28,4.18,4.52,0
20.2,-1.26,1.94,3.06,3.83,0
20.2,-1.27,2.4,2.05,3.4,0
20.2,-1.09,2.77,1.22,3.22,0
20.2,-0.585,2.98,0.838,3.15,0
20.2,0.344,2.76,1.68,3.25,0
20.2,1.43,2.18,3.77,4.59,0
20.3,2.21,1.54,6.26,6.82,0
20.3,2.23,0.813,8.11,8.45,0
20.3,1.32,-0.11,7.91,8.02,0
20.3,-0.0271,-0.934,5.62,5.7,0
20.3,-1.29,-1.4,2.65,3.26,0
20.3,-2.29,-1.63,0.133,2.81,0
20.3,-2.73,-1.56,-1.53,3.5,0
20.3,-2.59,-1.36,-2.22,3.67,0
20.3,-1.95,-1.15,-2.02,3.03,0
20.3,-1.04,-0.934,-1.17,1.82,0
20.4,-0.352,-0.781,-0.482,0.983,0
20.4,0.221,-0.698,-0.441,0.854,0
20.4,0.678,-0.531,-0.733,1.13,0
20.4,0.765,-0.383,-1.28,1.54,0
20.4,0.577,-0.386,-1.97,2.09,0
20.4,0.19,-0.523,-2.57,2.63,0
20.4,-0.241,-0.714,-3.01,3.1,0
20.4,-0.607,-0.942,-3.23,3.42,0
20.4,-0.92,-1.15,-3.15,3.48,0
20.4,-1.11,-1.37,-2.78,3.29,0
20.5,-1.18,-1.59,-2.52,3.2,0
20.5,-1.26,-1.84,-2.48,3.34,0
20.5,-1.39,-2.08,-2.63,3.63,0
20.5,-1.57,-2.22,-2.86,3.95,0
20.5,-1.7,-2.26,-3.15,4.23,0
20.5,-1.81,-2.16,-3.42,4.43,0
20.5,-1.89,-1.9,-3.63,4.51,0
20.5,-1.78,-1.6,-3.76,4.46,0
20.5,-1.66,-1.34,-3.85,4.4,0
20.5,-1.6,-1.09,-3.94,4.39,0
20.6,-1.39,-0.871,-3.64,3.99,0
20.6,-1.2,-0.668,-2.76,3.08,0
20.6,-1.05,-0.552,-1.85,2.2,0
20.6,-0.944,-0.525,-0.996,1.47,0
20.6,-0.749,-0.399,-0.0586,0.85,0
20.6,-0.407,-0.0362,0.704,0.814,0
20.6,0.066,0.407,1.34,1.4,0
20.6,0.506,0.767,2.14,2.33,0
20.6,0.883,0.992,3.12,3.39,0
20.6,1.23,1.14,3.91,4.26,0
20.7,1.39,1.18,4.14,4.53,0
20.7,1.57,1.18,3.88,4.35,0
20.7,1.76,1.4,3.28,3.97,0
20.7,1.86,1.88,2.71,3.79,0
20.7,1.84,2.46,1.91,3.61,0
20.7,1.78,2.84,0.736,3.43,0
20.7,1.76,3.0,-0.192,3.49,0
20.7,1.86,2.81,-0.322,3.39,0
20.7,2.2,2.38,0.536,3.28,0
20.7,2.82,1.7,2.07,3.89,0
20.8,3.37,0.899,3.69,5.08,0
20.8,3.53,0.153,5.13,6.23,0
20.8,3.17,-0.576,6.14,6.93,0
20.8,2.51,-1.2,6.16,6.76,0
20.8,1.74,-1.59,5.14,5.65,0
20.8,1.24,-1.79,3.55,4.17,0
20.8,0.987,-1.79,2.17,2.98,0
20.8,0.915,-1.67,1.03,2.16,0
20.8,1.03,-1.37,-0.18,1.72,0
20.8,1.44,-1.03,-1.44,2.28,0
20.9,2.13,-0.645,-2.29,3.2,0
20.9,2.74,-0.0894,-2.73,3.87,0
20.9,3.06,0.384,-2.95,4.26,0
20.9,3.04,0.549,-3.14,4.41,0
20.9,2.66,0.437,-3.47,4.39,0
20.9,2.05,0.174,-3.92,4.43,0
20.9,1.44,-0.152,-4.23,4.47,0
20.9,1.04,-0.402,-4.39,4.53,0
20.9,0.745,-0.515,-4.46,4.55,0
20.9,0.396,-0.688,-4.33,4.4,0
21.0,0.0395,-1.0,-3.89,4.01,0
21.0,-0.159,-1.33,-3.36,3.62,0
21.0,-0.32,-1.41,-3.17,3.49,0
21.0,-0.449,-1.39,-3.31,3.62,0
21.0,-0.62,-1.29,-3.55,3.82,0
21.0,-0.77,-1.21,-3.74,4.01,0
21.0,-0.819,-1.1,-3.74,3.98,0
21.0,-0.945,-0.978,-3.45,3.71,0
21.0,-1.13,-0.931,-3.04,3.37,0
21.0,-1.32,-0.858,-2.47,2.92,0
21.1,-1.36,-0.758,-1.91,2.47,0
21.1,-1.28,-0.525,-1.52,2.06,0
21.1,-1.02,-0.229,-1.12,1.53,0
21.1,-0.832,0.0427,-0.466,0.954,0
21.1,-0.88,0.312,0.386,1.01,0
21.1,-1.0,0.496,1.55,1.91,0
21.1,-1.18,0.541,2.66,2.96,0
21.1,-1.27,0.58,3.45,3.72,0
21.1,-1.32,0.617,4.17,4.42,0
21.1,-1.28,0.698,4.94,5.15,0
21.2,-1.33,0.873,5.53,5.75,0
21.2,-1.39,0.987,5.46,5.72,0
21.2,-1.47,1.1,4.74,5.08,0
21.2,-1.5,1.46,3.81,4.35,0
21.2,-1.58,1.92,2.77,3.72,0
21.2,-1.7,2.4,1.6,3.35,0
21.2,-1.75,2.61,0.738,3.23,0
21.2,-1.47,2.42,0.705,2.92,0
21.2,-0.725,1.96,1.99,2.89,0
21.2,0.175,1.48,4.03,4.3,0
21.3,0.643,0.985,5.7,5.82,0
21.3,0.451,0.687,6.27,6.32,0
21.3,-0.209,0.388,5.24,5.26,0
21.3,-1.07,0.0245,2.98,3.17,0
21.3,-1.71,-0.0904,0.926,1.95,0
21.3,-1.97,-0.0426,-0.281,1.99,0
21.3,-1.79,0.0288,-0.716,1.93,0
21.3,-1.31,0.023,-0.552,1.42,0
21.3,-0.612,-0.0419,-0.169,0.636,0
21.3,-0.00962,-0.0972,0.0193,0.0996,0
21.4,0.221,-0.208,0.367,0.476,0
21.4,0.168,-0.637,1.02,1.22,0
21.4,0.0262,-1.1,1.3,1.7,0
21.4,-0.187,-1.38,0.933,1.67,0
21.4,-0.42,-1.52,0.131,1.58,0
21.4,-0.57,-1.65,-0.778,1.91,0
21.4,-0.738,-1.76,-1.56,2.47,0
21.4,-0.805,-1.82,-2.3,3.04,0
21.4,-0.681,-1.78,-2.9,3.47,0
21.4,-0.693,-1.68,-3.12,3.61,0
21.5,-0.777,-1.6,-3.15,3.61,0
21.5,-0.865,-1.6,-3.09,3.59,0
21.5,-0.935,-1.63,-3.02,3.56,0
21.5,-0.939,-1.6,-3.12,3.63,0
21.5,-0.884,-1.52,-3.42,3.85,0
21.5,-0.794,-1.31,-3.7,4.0,0
21.5,-0.714,-1.08,-3.88,4.09,0
21.5,-0.654,-0.895,-3.9,4.05,0
21.5,-0.651,-0.811,-3.75,3.89,0
21.5,-0.602,-0.741,-3.43,3.56,0
21.6,-0.49,-0.667,-2.9,3.02,0
21.6,-0.343,-0.609,-2.12,2.23,0
21.6,-0.198,-0.545,-1.42,1.53,0
21.6,-0.246,-0.453,-0.828,0.975,0
21.6,-0.265,-0.204,-0.224,0.402,0
21.6,-0.0834,0.165,0.363,0.407,0
21.6,0.287,0.588,1.06,1.25,0
21.6,0.825,0.858,1.98,2.31,0
21.6,1.39,0.82,3.25,3.63,0
21.6,1.89,0.773,4.38,4.83,0
21.7,2.24,0.693,5.07,5.59,0
21.7,2.45,0.651,5.27,5.85,0
21.7,2.12,0.844,4.32,4.89,0
21.7,1.51,1.15,2.69,3.29,0
21.7,0.978,1.49,1.01,2.05,0
21.7,0.683,1.79,-0.273,1.93,0
21.7,0.819,2.06,-0.811,2.36,0
21.7,1.32,2.17,-0.931,2.7,0
21.7,2.41,1.95,-0.289,3.11,0
21.7,3.71,1.6,0.982,4.15,0
21.8,4.59,1.2,2.2,5.23,0
21.8,4.82,0.77,3.49,6.0,0
21.8,4.39,0.15,4.25,6.12,0
21.8,3.45,-0.586,3.92,5.26,0
21.8,2.33,-1.15,3.02,3.98,0
21.8,1.45,-1.47,2.05,2.91,0
21.8,0.891,-1.59,1.28,2.23,0
21.8,0.584,-1.67,0.764,1.92,0
21.8,0.577,-1.7,0.484,1.86,0
21.8,0.795,-1.62,0.29,1.83,0
21.9,1.03,-1.45,0.0789,1.78,0
21.9,1.13,-1.25,-0.533,1.77,0
21.9,1.29,-1.1,-1.58,2.31,0
21.9,1.39,-0.827,-2.55,3.02,0
21.9,1.23,-0.649,-3.49,3.75,0
21.9,0.87,-0.624,-4.3,4.44,0
21.9,0.372,-0.737,-4.81,4.88,0
21.9,0.00248,-0.917,-5.03,5.11,0
21.9,-0.287,-1.0,-5.05,5.16,0
21.9,-0.514,-1.02,-4.93,5.06,0
22.0,-0.688,-1.05,-4.67,4.83,0
22.0,-0.826,-1.05,-4.28,4.48,0
22.0,-0.971,-0.97,-4.01,4.24,0
22.0,-1.03,-0.803,-3.95,4.16,0
22.0,-0.966,-0.554,-3.82,3.98,0
22.0,-0.821,-0.287,-3.48,3.59,0
22.0,-0.648,-0.0302,-3.03,3.09,0
22.0,-0.501,0.177,-2.56,2.62,0
22.0,-0.348,0.372,-2.04,2.1,0
22.0,-0.149,0.548,-1.45,1.56,0
22.1,0.0901,0.735,-0.812,1.1,0
22.1,0.0698,0.942,-0.268,0.982,0
22.1,-0.0994,1.05,-0.0231,1.05,0
22.1,-0.349,1.15,0.274,1.23,0
22.1,-0.806,1.2,0.829,1.67,0
22.1,-1.12,1.14,1.75,2.37,0
22.1,-1.05,1.17,3.17,3.54,0
22.1,-0.826,1.31,4.51,4.77,0
22.1,-0.738,1.51,5.25,5.51,0
22.1,-0.749,1.91,5.37,5.75,0
22.2,-0.923,2.33,4.66,5.29,0
22.2,-1.16,2.6,3.42,4.45,0
22.2,-1.4,2.94,2.27,3.97,0
22.2,-1.23,3.21,1.42,3.72,0
22.2,-0.376,3.21,1.63,3.62,0
22.2,0.851,2.83,3.53,4.61,0
22.2,1.84,2.25,5.97,6.64,0
22.2,2.26,1.59,7.86,8.33,0
22.2,1.79,0.776,8.11,8.34,0
22.2,0.681,-0.0363,6.5,6.53,0
22.3,-0.51,-0.579,3.9,3.98,0
22.3,-1.49,-0.894,1.38,2.22,0
22.3,-2.21,-1.02,-0.62,2.51,0
22.3,-2.56,-0.998,-2.01,3.41,0
22.3,-2.51,-1.08,-2.82,3.93,0
22.3,-2.12,-1.2,-2.77,3.68,0
22.3,-1.28,-1.21,-1.87,2.57,0
22.3,-0.522,-1.1,-0.847,1.48,0
22.3,-0.228,-1.16,-0.117,1.19,0
22.3,-0.132,-1.42,0.662,1.57,0
22.4,-0.13,-1.71,0.936,1.96,0
22.4,-0.402,-1.9,0.168,1.95,0
22.4,-0.842,-1.97,-1.25,2.48,0
22.4,-1.2,-2.02,-2.37,3.34,0
22.4,-1.46,-2.09,-3.06,3.98,0
22.4,-1.87,-2.1,-3.19,4.25,0
22.4,-2.23,-2.28,-2.85,4.28,0
22.4,-2.19,-2.55,-2.49,4.18,0
22.4,-1.91,-2.56,-2.29,3.93,0
22.5,-1.63,-2.41,-2.5,3.84,0
22.5,-1.44,-2.11,-2.94,3.9,0
22.5,-1.3,-1.78,-3.39,4.05,0
22.5,-1.14,-1.49,-3.61,4.07,0
22.5,-1.08,-1.26,-3.66,4.02,0
22.5,-1.09,-1.11,-3.58,3.91,0
22.5,-0.979,-1.03,-3.18,3.48,0
22.5,-0.947,-1.03,-2.51,2.88,0
22.5,-0.877,-1.14,-1.79,2.3,0
22.5,-0.459,-1.12,-1.24,1.73,0
22.6,-0.0368,-0.767,-0.792,1.1,0
22.6,0.273,-0.216,-0.287,0.451,0
22.6,0.515,0.267,0.368,0.687,0
22.6,0.78,0.566,1.34,1.65,0
22.6,0.83,0.732,2.16,2.43,0
22.6,0.879,0.738,2.72,2.95,0
22.6,0.976,0.781,3.03,3.28,0
22.6,1.06,0.987,2.96,3.3,0
22.6,1.19,1.25,2.59,3.11,0
22.6,1.19,1.59,2.21,2.98,0
22.7,1.14,2.05,1.83,2.98,0
22.7,1.02,2.55,1.26,3.03,0
22.7,0.885,2.97,0.483,3.13,0
22.7,0.877,3.14,-0.335,3.28,0
22.7,1.09,3.09,-1.08,3.45,0
22.7,2.04,2.97,-0.905,3.72,0
22.7,3.4,2.72,0.818,4.43,0
22.7,4.36,2.35,2.81,5.7,0
22.7,4.82,1.91,4.56,6.9,0
22.7,4.69,1.27,5.85,7.6,0
22.8,3.8,0.414,5.61,6.79,0
22.8,2.57,-0.413,4.16,4.91,0
22.8,1.61,-0.859,2.75,3.3,0
22.8,0.867,-1.18,1.8,2.32,0
22.8,0.31,-1.5,1.25,1.98,0
22.8,0.0868,-1.8,0.7,1.93,0
22.8,0.0672,-1.96,0.0815,1.96,0
22.8,0.16,-1.9,-0.627,2.01,0
22.8,0.492,-1.75,-1.28,2.23,0
22.8,0.988,-1.58,-1.73,2.55,0
22.9,1.5,-1.31,-2.03,2.85,0
22.9,1.76,-1.03,-2.18,2.98,0
22.9,1.62,-1.01,-2.37,3.04,0
22.9,1.29,-1.21,-2.7,3.23,0
22.9,0.871,-1.47,-3.1,3.54,0
22.9,0.42,-1.69,-3.42,3.84,0
22.9,-0.0795,-1.95,-3.63,4.12,0
22.9,-0.426,-2.11,-3.84,4.4,0
22.9,-0.725,-2.15,-4.21,4.78,0
22.9,-1.09,-2.13,-4.58,5.17,0
23.0,-1.33,-2.08,-4.76,5.36,0
23.0,-1.32,-2.06,-4.55,5.16,0
23.0,-1.28,-1.86,-4.02,4.61,0
23.0,-1.15,-1.52,-3.57,4.05,0
23.0,-0.96,-1.17,-3.19,3.53,0
23.0,-0.946,-0.882,-2.89,3.17,0
23.0,-0.919,-0.671,-2.56,2.8,0
23.0,-0.835,-0.491,-1.98,2.2,0
23.0,-0.49,-0.16,-1.16,1.27,0
23.0,-0.148,0.504,-0.126,0.54,0
23.1,0.0892,1.16,1.02,1.55,0
23.1,0.0853,1.61,2.07,2.62,0
23.1,-0.0694,1.77,2.88,3.38,0
23.1,-0.332,1.7,3.41,3.82,0
23.1,-0.602,1.64,3.62,4.02,0
23.1,-0.69,1.82,3.61,4.1,0
23.1,-0.546,2.13,3.5,4.13,0
23.1,-0.233,2.6,3.23,4.16,0
23.1,-0.201,3.16,2.68,4.15,0
23.1,-0.347,3.54,1.96,4.06,0
23.2,-0.522,3.85,1.22,4.07,0
23.2,-0.43,3.91,1.02,4.07,0
23.2,0.0565,3.69,1.66,4.05,0
23.2,0.974,3.24,3.06,4.56,0
23.2,1.95,2.72,5.08,6.09,0
23.2,2.22,2.16,7.03,7.68,0
23.2,1.5,1.46,7.52,7.81,0
23.2,0.114,0.634,6.11,6.14,0
23.2,-1.25,-0.0439,3.64,3.85,0
23.2,-2.32,-0.361,1.3,2.68,0
23.3,-2.88,-0.385,-0.2,2.91,0
23.3,-2.8,-0.27,-0.845,2.93,0
23.3,-2.41,-0.264,-0.74,2.53,0
23.3,-1.81,-0.426,-0.132,1.86,0
23.3,-1.05,-0.553,0.591,1.32,0
23.3,-0.459,-0.568,1.0,1.24,0
23.3,-0.113,-0.655,1.14,1.32,0
23.3,-0.17,-0.892,1.02,1.37,0
23.3,-0.565,-1.2,0.494,1.42,0
23.3,-1.04,-1.59,-0.299,1.93,0
23.4,-1.33,-1.88,-0.893,2.47,0
23.4,-1.56,-2.08,-1.46,2.99,0
23.4,-1.59,-2.17,-1.92,3.31,0
23.4,-1.54,-2.19,-2.22,3.48,0
23.4,-1.41,-2.19,-2.52,3.62,0
23.4,-1.3,-2.21,-2.73,3.75,0
23.4,-1.25,-2.27,-2.85,3.85,0
23.4,-1.18,-2.29,-2.97,3.93,0
23.4,-1.25,-2.26,-3.18,4.1,0
23.4,-1.39,-2.28,-3.35,4.29,0
23.5,-1.53,-2.26,-3.57,4.49,0
23.5,-1.54,-2.16,-3.81,4.64,0
23.5,-1.45,-1.95,-3.91,4.61,0
23.5,-1.41,-1.65,-3.89,4.46,0
23.5,-1.27,-1.53,-3.45,3.98,0
23.5,-0.829,-1.53,-2.68,3.2,0
23.5,-0.276,-1.29,-1.96,2.37,0
23.5,0.181,-0.909,-1.5,1.76,0
23.5,0.502,-0.534,-1.07,1.3,0
23.5,0.474,-0.404,-0.555,0.835,0
23.6,0.243,-0.399,-0.182,0.501,0
23.6,0.125,-0.411,0.0794,0.437,0
23.6,0.266,-0.36,0.412,0.608,0
23.6,0.483,-0.105,0.431,0.656,0
23.6,0.783,0.224,0.339,0.882,0
23.6,1.25,0.66,0.574,1.53,0
23.6,1.65,1.34,1.09,2.39,0
23.6,1.87,2.05,1.38,3.09,0
23.6,1.79,2.44,1.2,3.26,0
23.6,1.62,2.67,0.766,3.21,0
23.7,1.88,2.78,0.767,3.44,0
23.7,2.86,2.71,1.83,4.34,0
23.7,4.24,2.42,4.1,6.38,0
23.7,5.29,2.05,6.74,8.81,0
23.7,5.58,1.45,8.05,9.9,0
23.7,5.03,0.606,7.51,9.06,0
23.7,3.88,-0.206,5.86,7.04,0
23.7,2.73,-0.758,3.95,4.86,0
23.7,1.9,-1.2,2.17,3.12,0
23.7,1.3,-1.47,0.993,2.2,0
23.8,0.979,-1.62,0.444,1.94,0
23.8,0.994,-1.71,0.395,2.01,0
23.8,1.32,-1.71,0.449,2.2,0
23.8,1.76,-1.49,0.17,2.31,0
23.8,2.01,-1.19,-0.391,2.37,0
23.8,2.11,-0.938,-1.1,2.56,0
23.8,2.11,-0.769,-1.9,2.94,0
23.8,1.92,-0.657,-2.65,3.34,0
23.8,1.56,-0.591,-3.27,3.67,0
23.8,1.12,-0.638,-3.8,4.01,0
23.9,0.756,-0.739,-4.19,4.32,0
23.9,0.4,-0.829,-4.43,4.52,0
23.9,0.0697,-0.963,-4.5,4.61,0
23.9,-0.175,-1.06,-4.36,4.49,0
23.9,-0.444,-1.11,-4.18,4.35,0
23.9,-0.757,-1.17,-3.96,4.2,0
23.9,-1.03,-1.28,-3.64,4.0,0
23.9,-1.27,-1.28,-3.33,3.78,0
23.9,-1.32,-1.15,-3.18,3.63,0
23.9,-1.13,-0.887,-3.04,3.36,0
24.0,-0.968,-0.493,-2.75,2.96,0
24.0,-0.853,-0.164,-2.62,2.76,0
24.0,-0.635,0.0838,-2.47,2.56,0
24.0,-0.459,0.379,-2.18,2.26,0
24.0,-0.355,0.608,-1.58,1.73,0
24.0,-0.141,0.751,-0.777,1.09,0
24.0,0.0625,0.98,0.169,0.996,0
24.0,0.141,1.17,1.13,1.64,0
24.0,0.106,1.26,2.12,2.47,0
24.0,0.11,1.32,3.14,3.41,0
24.1,-0.0167,1.41,3.97,4.22,0
24.1,-0.28,1.4,4.33,4.56,0
24.1,-0.523,1.37,4.13,4.38,0
24.1,-0.574,1.45,3.73,4.05,0
24.1,-0.38,1.66,3.4,3.81,0
24.1,-0.0905,1.99,3.31,3.86,0
24.1,-0.0324,2.25,2.99,3.74,0
24.1,-0.238,2.35,2.16,3.2,0
24.1,-0.481,2.37,1.35,2.77,0
24.1,-0.572,2.39,0.704,2.56,0
24.2,-0.292,2.31,0.652,2.42,0
24.2,0.386,2.11,1.56,2.65,0
24.2,0.915,1.78,2.88,3.5,0
24.2,0.847,1.24,3.79,4.08,0
24.2,0.236,0.474,4.0,4.04,0
24.2,-0.837,-0.173,3.2,3.32,0
24.2,-1.86,-0.55,1.81,2.65,0
24.2,-2.56,-0.719,0.516,2.71,0
24.2,-2.79,-0.722,-0.364,2.91,0
24.2,-2.65,-0.478,-0.937,2.85,0
24.3,-1.87,-0.261,-0.895,2.09,0
24.3,-0.59,-0.0308,0.167,0.614,0
24.3,0.357,0.148,1.52,1.56,0
24.3,0.92,0.021,2.3,2.48,0
24.3,1.09,-0.308,2.57,2.81,0
24.3,0.729,-0.792,2.22,2.47,0
24.3,0.125,-1.33,1.45,1.97,0
24.3,-0.414,-1.77,0.602,1.92,0
24.3,-0.672,-2.04,-0.153,2.15,0
24.3,-0.841,-2.25,-0.906,2.57,0
24.4,-1.06,-2.37,-1.63,3.07,0
24.4,-1.28,-2.44,-2.42,3.66,0
24.4,-1.39,-2.49,-3.19,4.28,0
24.4,-1.38,-2.48,-3.66,4.64,0
24.4,-1.34,-2.34,-3.88,4.73,0
24.4,-1.25,-2.17,-3.98,4.71,0
24.4,-1.25,-2.04,-4.09,4.74,0
24.4,-1.28,-1.98,-4.2,4.81,0
24.4,-1.27,-1.91,-4.24,4.82,0
24.4,-1.14,-1.76,-4.26,4.75,0
24.5,-0.935,-1.45,-4.32,4.65,0
24.5,-0.621,-1.12,-4.44,4.62,0
24.5,-0.306,-0.851,-4.27,4.36,0
24.5,-0.131,-0.651,-3.46,3.52,0
24.5,-0.00448,-0.63,-2.57,2.65,0
24.5,0.244,-0.545,-1.78,1.88,0
24.5,0.538,-0.318,-0.977,1.16,0
24.5,0.741,0.0482,-0.28,0.794,0
24.5,0.908,0.421,0.176,1.02,0
24.5,1.1,0.586,0.453,1.32,0
24.6,1.23,0.683,0.981,1.72,0
24.6,1.41,0.804,1.77,2.41,0
24.6,1.64,0.922,2.32,2.99,0
24.6,2.06,1.05,2.7,3.55,0
24.6,2.46,1.29,3.16,4.2,0
24.6,2.72,1.69,3.25,4.56,0
24.6,2.5,2.18,2.74,4.3,0
24.6,2.01,2.39,1.54,3.49,0
24.6,1.78,2.38,0.502,3.01,0
24.6,1.85,2.39,-0.111,3.03,0
24.7,2.65,2.27,0.287,3.5,0
24.7,4.09,1.86,2.03,4.93,0
24.7,5.4,1.52,4.34,7.09,0
24.7,6.11,1.27,5.97,8.64,0
24.7,5.9,0.688,6.3,8.66,0
24.7,4.72,-0.198,5.28,7.08,0
24.7,3.24,-1.1,3.58,4.95,0
24.7,1.87,-1.84,1.86,3.22,0
24.7,0.682,-2.5,0.595,2.66,0
24.7,-0.105,-2.87,-0.188,2.88,0
24.8,-0.491,-2.96,-0.701,3.08,0
24.8,-0.484,-2.87,-1.1,3.11,0
24.8,-0.141,-2.72,-1.42,3.07,0
24.8,0.333,-2.41,-1.68,2.96,0
24.8,0.739,-1.96,-1.99,2.89,0
24.8,0.991,-1.56,-2.41,3.03,0
24.8,1.05,-1.26,-2.83,3.27,0
24.8,0.909,-1.14,-3.2,3.51,0
24.8,0.687,-1.05,-3.34,3.57,0
24.8,0.366,-0.993,-3.46,3.61,0
24.9,0.134,-0.966,-3.54,3.67,0
24.9,-0.0223,-0.954,-3.48,3.61,0
24.9,-0.218,-0.969,-3.32,3.46,0
24.9,-0.433,-1.05,-2.9,3.12,0
24.9,-0.7,-1.14,-2.34,2.69,0
24.9,-0.894,-1.2,-1.99,2.49,0
24.9,-0.907,-1.09,-1.99,2.45,0
24.9,-1.08,-0.79,-2.16,2.54,0
24.9,-1.18,-0.534,-2.35,2.68,0
24.9,-1.25,-0.258,-2.4,2.72,0
25.0,-1.23,0.0372,-2.19,2.51,0
25.0,-1.25,0.284,-1.88,2.28,0
25.0,-1.14,0.517,-1.64,2.07,0
25.0,-0.895,0.88,-1.35,1.84,0
25.0,-0.586,1.28,-0.79,1.61,0
25.0,-0.407,1.54,0.22,1.61,0
25.0,-0.263,1.7,1.34,2.18,0
25.0,-0.11,1.88,2.44,3.08,0
25.0,-0.22,2.04,3.3,3.89,0
25.0,-0.495,2.12,3.69,4.28,0
25.1,-0.875,2.1,3.72,4.36,0
25.1,-1.25,2.07,3.61,4.35,0
25.1,-1.64,2.18,3.51,4.45,0
25.1,-2.07,2.44,3.06,4.42,0
25.1,-2.33,2.73,2.3,4.26,0
25.1,-2.51,2.98,1.67,4.24,0
25.1,-2.4,3.04,1.22,4.06,0
25.1,-1.56,2.79,1.35,3.47,0
25.1,0.0615,2.54,2.79,3.78,0
25.1,1.84,2.24,5.32,6.05,0
25.2,3.06,1.98,7.91,8.71,0
25.2,3.12,1.51,9.08,9.72,0
25.2,1.89,0.546,8.22,8.46,0
25.2,0.0599,-0.542,5.64,5.67,0
25.2,-1.57,-1.39,2.65,3.38,0
25.2,-2.83,-1.94,0.191,3.44,0
25.2,-3.5,-2.11,-1.56,4.38,0
25.2,-3.61,-2.01,-2.48,4.82,0
25.2,-3.25,-1.83,-2.45,4.46,0
25.2,-2.46,-1.61,-1.51,3.3,0
25.3,-1.55,-1.37,-0.211,2.08,0
25.3,-1.03,-1.25,0.421,1.68,0
25.3,-0.969,-1.36,0.344,1.7,0
25.3,-1.13,-1.6,-0.0864,1.96,0
25.3,-1.37,-1.81,-0.831,2.42,0
25.3,-1.54,-1.85,-1.43,2.8,0
25.3,-1.7,-1.79,-1.72,3.01,0
25.3,-1.85,-1.8,-1.97,3.24,0
25.3,-1.89,-1.8,-2.2,3.42,0
25.3,-1.94,-1.81,-2.34,3.54,0
25.4,-1.92,-1.8,-2.35,3.53,0
25.4,-1.89,-1.77,-2.17,3.38,0
25.4,-1.88,-1.77,-1.88,3.19,0
25.4,-1.67,-1.77,-1.71,2.97,0
25.4,-1.48,-1.59,-1.77,2.8,0
25.4,-1.36,-1.33,-1.99,2.75,0
25.4,-1.34,-1.2,-2.12,2.78,0
25.4,-1.39,-1.11,-2.3,2.9,0
25.4,-1.37,-1.03,-2.44,2.98,0
25.4,-1.22,-0.906,-2.3,2.76,0
25.5,-1.05,-0.746,-1.97,2.36,0
25.5,-0.854,-0.622,-1.64,1.95,0
25.5,-0.661,-0.594,-1.23,1.52,0
25.5,-0.496,-0.527,-0.84,1.11,0
25.5,-0.399,-0.382,-0.536,0.769,0
25.5,-0.171,-0.162,-0.0784,0.248,0
25.5,0.0888,0.0457,0.36,0.374,0
25.5,0.4,0.0701,0.919,1.0,0
25.5,0.766,0.06,1.79,1.95,0
25.5,1.11,0.25,2.54,2.78,0
25.6,1.49,0.55,2.9,3.31,0
25.6,1.82,0.864,2.86,3.49,0
25.6,1.66,1.19,2.25,3.04,0
25.6,1.08,1.52,1.12,2.18,0
25.6,0.593,1.66,-0.0273,1.76,0
25.6,0.314,1.76,-0.752,1.94,0
25.6,0.492,1.87,-0.94,2.15,0
25.6,1.38,1.99,-0.494,2.47,0
25.6,2.74,2.02,0.768,3.49,0
25.6,4.14,1.96,2.6,5.26,0
25.7,5.12,1.86,4.26,6.91,0
25.7,5.11,1.59,5.25,7.5,0
25.7,4.12,0.878,5.25,6.73,0
25.7,2.75,-0.147,4.36,5.16,0
25.7,1.44,-0.951,2.84,3.32,0
25.7,0.496,-1.41,1.22,1.93,0
25.7,-0.0624,-1.69,0.283,1.72,0
25.7,-0.156,-1.8,0.143,1.81,0
25.7,0.0358,-1.72,0.286,1.74,0
25.7,0.387,-1.56,0.319,1.64,0
25.8,0.6,-1.41,0.105,1.53,0
25.8,0.723,-1.31,-0.418,1.55,0
25.8,0.627,-1.11,-1.04,1.65,0
25.8,0.354,-0.935,-1.65,1.93,0
25.8,0.00388,-0.915,-2.2,2.38,0
25.8,-0.364,-0.924,-2.62,2.8,0
25.8,-0.671,-0.908,-2.92,3.13,0
25.8,-0.896,-0.916,-3.13,3.38,0
25.8,-1.09,-0.927,-3.26,3.56,0
25.8,-1.22,-0.917,-3.36,3.69,0
25.9,-1.34,-0.924,-3.34,3.72,0
25.9,-1.33,-0.928,-3.18,3.57,0
25.9,-1.24,-0.847,-2.99,3.35,0
25.9,-1.05,-0.675,-2.8,3.06,0
25.9,-0.94,-0.453,-2.51,2.72,0
25.9,-0.917,-0.247,-2.25,2.45,0
25.9,-1.02,-0.179,-2.09,2.34,0
25.9,-1.34,-0.224,-2.11,2.51,0
25.9,-1.62,-0.291,-2.09,2.66,0
25.9,-1.65,-0.25,-1.83,2.48,0
26.0,-1.43,-0.0412,-1.46,2.04,0
26.0,-0.976,0.274,-1.05,1.46,0
26.0,-0.508,0.609,-0.612,1.0,0
26.0,-0.174,0.938,-0.141,0.965,0
26.0,-0.0727,1.2,0.336,1.24,0
26.0,-0.126,1.31,0.878,1.58,0
26.0,-0.106,1.3,1.4,1.91,0
26.0,-0.221,1.31,2.0,2.4,0
26.0,-0.401,1.36,2.69,3.04,0
26.0,-0.617,1.46,3.15,3.53,0
26.1,-0.806,1.57,3.18,3.64,0
26.1,-1.0,1.59,2.91,3.47,0
26.1,-1.27,1.77,2.27,3.15,0
26.1,-1.5,2.07,1.54,2.99,0
26.1,-1.64,2.28,1.03,2.99,0
26.1,-1.52,2.26,0.566,2.78,0
26.1,-0.531,1.93,1.16,2.31,0
26.1,0.822,1.68,3.04,3.57,0
26.1,2.27,1.52,5.45,6.1,0
26.1,2.96,1.31,7.36,8.04,0
26.2,2.51,0.846,7.94,8.37,0
26.2,1.09,0.0628,6.79,6.88,0
26.2,-0.638,-0.663,4.19,4.29,0
26.2,-2.02,-1.15,1.53,2.78,0
26.2,-2.85,-1.33,-0.295,3.16,0
26.2,-3.09,-1.2,-1.37,3.59,0
26.2,-2.65,-0.904,-1.6,3.23,0
26.2,-1.66,-0.639,-0.975,2.03,0
26.2,-0.568,-0.412,0.0529,0.704,0
26.2,-0.000438,-0.303,0.774,0.831,0
26.3,0.276,-0.412,0.937,1.06,0
26.3,0.271,-0.603,0.579,0.879,0
26.3,-0.0119,-0.802,-0.185,0.823,0
26.3,-0.388,-1.01,-0.972,1.45,0
26.3,-0.632,-1.21,-1.47,2.01,0
26.3,-0.929,-1.34,-2.0,2.58,0
26.3,-1.2,-1.45,-2.55,3.17,0
26.3,-1.42,-1.54,-2.94,3.6,0
26.3,-1.58,-1.61,-3.17,3.89,0
26.3,-1.7,-1.62,-3.36,4.1,0
26.4,-1.81,-1.64,-3.37,4.16,0
26.4,-1.87,-1.68,-3.25,4.11,0
26.4,-1.87,-1.67,-3.15,4.03,0
26.4,-1.86,-1.54,-3.2,4.01,0
26.4,-1.73,-1.34,-3.31,3.97,0
26.4,-1.55,-1.04,-3.4,3.87,0
26.4,-1.4,-0.69,-3.42,3.76,0
26.4,-1.19,-0.405,-3.24,3.47,0
26.4,-0.903,-0.171,-2.92,3.06,0
26.4,-0.593,-0.0133,-2.52,2.59,0
26.5,-0.347,0.0791,-1.9,1.93,0
26.5,0.0186,0.134,-1.04,1.05,0
26.5,0.467,0.319,-0.17,0.59,0
26.5,0.812,0.561,0.517,1.11,0
26.5,0.966,0.82,0.944,1.58,0
26.5,0.978,0.922,1.33,1.89,0
26.5,0.924,0.789,2.0,2.34,0
26.5,1.13,0.623,2.72,3.01,0
26.5,1.46,0.677,3.22,3.6,0
26.5,1.81,0.944,3.15,3.76,0
26.6,1.94,1.23,2.54,3.42,0
26.6,1.69,1.45,1.68,2.79,0
26.6,1.35,1.63,0.987,2.33,0
26.6,0.934,1.71,0.326,1.98,0
26.6,0.634,1.77,-0.311,1.91,0
26.6,0.588,1.85,-0.651,2.05,0
26.6,0.972,1.82,-0.597,2.15,0
26.6,2.25,1.59,0.51,2.8,0
26.6,3.85,1.36,2.39,4.74,0
26.6,5.04,1.36,4.44,6.86,0
26.7,5.31,1.34,6.04,8.15,0
26.7,4.69,0.839,6.44,8.01,0
26.7,3.33,-0.0847,5.53,6.45,0
26.7,1.98,-0.973,3.93,4.5,0
26.7,0.972,-1.5,2.38,2.98,0
26.7,0.415,-1.77,1.35,2.27,0
26.7,0.298,-1.77,0.849,1.98,0
26.7,0.463,-1.62,0.364,1.73,0
26.7,0.8,-1.53,-0.174,1.73,0
26.7,1.15,-1.35,-0.732,1.92,0
26.8,1.51,-1.07,-1.48,2.37,0
26.8,1.64,-0.767,-2.27,2.9,0
26.8,1.59,-0.607,-2.98,3.43,0
26.8,1.27,-0.577,-3.56,3.82,0
26.8,0.752,-0.698,-4.01,4.14,0
26.8,0.259,-0.921,-4.27,4.38,0
26.8,-0.216,-1.16,-4.36,4.52,0
26.8,-0.665,-1.38,-4.4,4.66,0
26.8,-1.01,-1.53,-4.36,4.73,0
26.8,-1.28,-1.61,-4.17,4.65,0
26.9,-1.56,-1.72,-3.84,4.49,0
26.9,-1.86,-1.78,-3.47,4.32,0
26.9,-2.11,-1.77,-3.27,4.27,0
26.9,-2.23,-1.62,-3.31,4.31,0
26.9,-2.16,-1.29,-3.48,4.3,0
26.9,-1.9,-0.734,-3.68,4.21,0
26.9,-1.66,-0.0589,-3.85,4.19,0
26.9,-1.49,0.429,-3.65,3.97,0
26.9,-1.44,0.69,-2.9,3.31,0
26.9,-1.59,0.851,-1.91,2.62,0
27.0,-1.54,1.03,-0.731,1.99,0
27.0,-1.28,1.17,0.316,1.76,0
27.0,-0.995,1.34,1.31,2.12,0
27.0,-0.64,1.51,2.37,2.88,0
27.0,-0.196,1.77,3.28,3.73,0
27.0,0.163,2.01,4.1,4.56,0
27.0,0.458,2.09,4.8,5.26,0
27.0,0.631,2.03,5.34,5.75,0
27.0,0.575,1.94,5.41,5.78,0
27.0,0.398,1.82,4.8,5.15,0
27.1,0.2,1.79,3.64,4.06,0
27.1,0.00722,1.96,2.53,3.2,0
27.1,-0.113,2.18,1.76,2.81,0
27.1,-0.136,2.25,0.889,2.43,0
27.1,-0.00977,2.24,0.16,2.25,0
27.1,0.678,2.11,0.645,2.3,0
27.1,1.58,1.93,2.34,3.42,0
27.1,2.35,1.54,4.09,4.96,0
27.1,2.6,1.07,5.34,6.03,0
27.1,2.1,0.554,5.48,5.89,0
27.2,1.04,-0.136,4.43,4.56,0
27.2,-0.03,-0.858,2.67,2.8,0
27.2,-0.924,-1.32,0.846,1.82,0
27.2,-1.62,-1.56,-0.473,2.3,0
27.2,-1.87,-1.72,-1.33,2.87,0
27.2,-1.73,-1.79,-1.78,3.06,0
27.2,-1.14,-1.71,-1.7,2.67,0
27.2,-0.28,-1.51,-0.93,1.8,0
27.2,0.285,-1.25,-0.0964,1.28,0
27.2,0.394,-1.19,0.128,1.26,0
27.3,0.0428,-1.41,-0.184,1.42,0
27.3,-0.595,-1.79,-0.849,2.07,0
27.3,-1.18,-2.18,-1.55,2.92,0
27.3,-1.48,-2.33,-1.97,3.39,0
27.3,-1.73,-2.44,-2.49,3.89,0
27.3,-1.94,-2.5,-2.93,4.32,0
27.3,-2.11,-2.5,-3.21,4.58,0
27.3,-2.3,-2.53,-3.35,4.78,0
27.3,-2.48,-2.56,-3.37,4.9,0
27.3,-2.48,-2.58,-3.36,4.91,0
27.4,-2.33,-2.48,-3.32,4.75,0
27.4,-2.18,-2.26,-3.33,4.57,0
27.4,-2.06,-1.99,-3.41,4.46,0
27.4,-2.07,-1.76,-3.58,4.49,0
27.4,-2.15,-1.57,-3.83,4.67,0
27.4,-2.26,-1.36,-3.85,4.67,0
27.4,-2.11,-1.11,-3.26,4.04,0
27.4,-1.71,-0.738,-2.4,3.04,0
27.4,-1.15,-0.215,-1.82,2.16,0
27.4,-0.533,0.335,-1.09,1.26,0
27.5,0.228,0.85,-0.147,0.893,0
27.5,0.87,1.36,0.848,1.83,0
27.5,1.29,1.89,1.85,2.94,0
27.5,1.51,2.17,2.81,3.85,0
27.5,1.66,2.35,3.55,4.57,0
27.5,1.66,2.54,3.9,4.94,0
27.5,1.59,2.55,3.8,4.84,0
27.5,1.61,2.44,3.39,4.48,0
27.5,1.79,2.6,2.85,4.25,0
27.5,1.95,3.09,2.45,4.4,0
27.6,1.95,3.54,2.21,4.6,0
27.6,1.68,3.84,1.73,4.54,0
27.6,1.38,3.9,0.971,4.25,0
27.6,1.33,3.57,0.482,3.84,0
27.6,1.87,2.93,0.635,3.53,0
27.6,3.47,2.28,1.91,4.57,0
27.6,5.42,1.85,3.98,6.98,0
27.6,6.91,1.72,6.0,9.31,0
27.6,7.16,1.49,6.79,9.98,0
27.6,6.01,0.639,6.02,8.53,0
27.7,4.21,-0.723,4.32,6.07,0
27.7,2.58,-1.94,2.42,4.03,0
27.7,1.2,-2.76,0.76,3.1,0
27.7,0.269,-3.18,-0.542,3.23,0
27.7,-0.151,-3.27,-1.46,3.59,0
27.7,-0.092,-3.24,-2.02,3.82,0
27.7,0.323,-3.05,-2.37,3.88,0
27.7,0.842,-2.68,-2.51,3.77,0
27.7,1.15,-2.26,-2.59,3.63,0
27.7,1.34,-1.94,-2.77,3.64,0
27.8,1.32,-1.76,-3.05,3.76,0
27.8,1.05,-1.7,-3.45,3.99,0
27.8,0.613,-1.69,-3.88,4.28,0
27.8,0.165,-1.76,-4.24,4.59,0
27.8,-0.28,-1.81,-4.35,4.72,0
27.8,-0.621,-1.81,-4.23,4.64,0
27.8,-0.811,-1.88,-3.95,4.45,0
27.8,-0.949,-1.87,-3.62,4.19,0
27.8,-1.15,-1.83,-3.37,4.0,0
27.8,-1.45,-1.77,-3.16,3.9,0
27.9,-1.57,-1.73,-2.99,3.8,0
27.9,-1.7,-1.62,-2.73,3.6,0
27.9,-1.88,-1.46,-2.36,3.35,0
27.9,-1.73,-1.24,-1.9,2.86,0
27.9,-1.39,-0.903,-1.63,2.33,0
27.9,-1.05,-0.454,-1.69,2.04,0
27.9,-0.781,-0.00741,-1.82,1.98,0
27.9,-0.486,0.341,-1.75,1.85,0
27.9,-0.275,0.665,-1.38,1.55,0
27.9,-0.169,0.962,-0.669,1.18,0
28.0,-0.0378,1.24,0.38,1.3,0
28.0,0.24,1.55,1.55,2.2,0
28.0,0.423,1.84,2.73,3.32,0
28.0,0.477,2.06,3.67,4.23,0
28.0,0.434,2.12,4.33,4.85,0
28.0,0.236,2.16,4.4,4.9,0
28.0,-0.148,2.25,3.82,4.43,0
28.0,-0.536,2.48,3.02,3.94,0
28.0,-0.698,2.75,2.44,3.74,0
28.0,-0.818,2.95,1.86,3.58,0
28.1,-0.721,3.04,1.15,3.33,0
28.1,-0.0493,2.82,0.918,2.96,0
28.1,1.39,2.54,2.05,3.55,0
28.1,3.01,2.33,4.22,5.68,0
28.1,4.08,2.09,6.35,7.83,0
28.1,3.72,1.82,7.36,8.45,0
28.1,2.17,0.99,6.46,6.89,0
28.1,0.223,-0.168,3.99,4.0,0
28.1,-1.43,-0.954,1.32,2.16,0
28.1,-2.49,-1.31,-0.568,2.87,0
28.2,-2.9,-1.33,-1.6,3.57,0
28.2,-2.67,-1.19,-1.92,3.5,0
28.2,-1.97,-1.11,-1.53,2.73,0
28.2,-0.913,-1.05,-0.548,1.49,0
28.2,0.00539,-0.94,0.267,0.977,0
28.2,0.536,-0.865,0.416,1.1,0
28.2,0.72,-0.941,0.18,1.2,0
28.2,0.398,-1.2,-0.293,1.3,0
28.2,-0.235,-1.54,-1.04,1.87,0
28.2,-0.755,-1.82,-1.82,2.68,0
28.3,-1.14,-1.95,-2.4,3.29,0
28.3,-1.42,-2.03,-2.88,3.79,0
28.3,-1.57,-2.01,-3.15,4.05,0
28.3,-1.65,-1.96,-3.18,4.08,0
28.3,-1.76,-1.95,-3.13,4.08,0
28.3,-1.83,-1.96,-3.05,4.06,0
28.3,-1.82,-1.92,-2.92,3.94,0
28.3,-1.74,-1.81,-2.84,3.79,0
28.3,-1.68,-1.69,-2.99,3.82,0
28.3,-1.7,-1.53,-3.21,3.94,0
28.4,-1.79,-1.38,-3.22,3.93,0
28.4,-1.97,-1.23,-3.29,4.02,0
28.4,-2.02,-1.09,-3.45,4.14,0
28.4,-1.92,-0.859,-3.45,4.04,0
28.4,-1.71,-0.498,-3.12,3.59,0
28.4,-1.44,-0.171,-2.51,2.89,0
28.4,-1.0,0.0368,-1.64,1.92,0
28.4,-0.667,0.284,-0.906,1.16,0
28.4,-0.408,0.626,-0.176,0.768,0
28.4,-0.145,0.882,0.506,1.03,0
28.5,0.147,1.03,1.1,1.52,0
28.5,0.665,1.17,2.01,2.42,0
28.5,1.13,1.4,3.01,3.51,0
28.5,1.42,1.47,3.74,4.27,0
28.5,1.58,1.46,4.1,4.63,0
28.5,1.42,1.49,3.65,4.19,0
28.5,1.13,1.67,2.65,3.33,0
28.5,0.616,1.96,1.8,2.73,0
28.5,0.0245,2.1,0.694,2.21,0
28.5,-0.341,2.22,-0.143,2.25,0
28.6,-0.526,2.32,-0.604,2.45,0
28.6,-0.0988,2.17,-0.24,2.18,0
28.6,1.36,1.76,1.75,2.82,0
28.6,3.24,1.46,4.26,5.55,0
28.6,4.76,1.39,6.31,8.02,0
28.6,5.36,1.26,7.11,8.99,0
28.6,4.85,0.673,6.18,7.88,0
28.6,3.56,-0.387,4.16,5.49,0
28.6,2.14,-1.38,2.25,3.4,0
28.6,0.723,-2.07,0.573,2.27,0
28.7,-0.036,-2.52,-0.261,2.53,0
28.7,-0.207,-2.64,-0.317,2.67,0
28.7,-0.0183,-2.46,-0.294,2.48,0
28.7,0.464,-2.13,-0.45,2.23,0
28.7,1.11,-1.82,-0.7,2.24,0
28.7,1.78,-1.41,-1.04,2.49,0
28.7,2.38,-0.866,-1.52,2.95,0
28.7,2.84,-0.386,-1.9,3.44,0
28.7,2.88,-0.00464,-2.18,3.62,0
28.7,2.44,0.125,-2.55,3.53,0
28.8,1.77,-0.0136,-2.91,3.4,0
28.8,1.02,-0.285,-3.2,3.37,0
28.8,0.328,-0.537,-3.44,3.5,0
28.8,-0.141,-0.668,-3.65,3.71,0
28.8,-0.456,-0.7,-3.8,3.89,0
28.8,-0.594,-0.741,-3.9,4.01,0
28.8,-0.799,-0.795,-3.85,4.01,0
28.8,-1.06,-0.8,-3.46,3.7,0
28.8,-1.17,-0.794,-2.88,3.21,0
28.8,-1.15,-0.766,-2.55,2.9,0
28.9,-1.01,-0.595,-2.47,2.73,0
28.9,-0.872,-0.303,-2.48,2.65,0
28.9,-0.756,-0.0483,-2.52,2.63,0
28.9,-0.637,0.113,-2.42,2.51,0
28.9,-0.514,0.317,-2.31,2.39,0
28.9,-0.355,0.609,-2.19,2.3,0
28.9,-0.167,0.913,-1.83,2.06,0
28.9,-0.0425,1.17,-1.27,1.73,0
28.9,-0.0541,1.45,-0.694,1.61,0
28.9,-0.176,1.64,0.00694,1.65,0
29.0,-0.215,1.73,0.979,2.0,0
29.0,-0.0752,1.81,2.2,2.85,0
29.0,0.0821,2.0,3.52,4.05,0
29.0,0.263,2.18,4.56,5.06,0
29.0,0.372,2.35,5.1,5.62,0
29.0,0.224,2.54,4.79,5.43,0
29.0,-0.284,2.79,3.74,4.67,0
29.0,-1.09,2.97,2.41,3.98,0
29.0,-1.52,3.08,1.26,3.66,0
29.0,-1.45,3.11,0.321,3.45,0
29.1,-0.334,2.86,0.631,2.95,0
29.1,1.63,2.57,2.68,4.06,0
29.1,3.52,2.19,5.62,6.98,0
29.1,4.4,1.97,8.14,9.45,0
29.1,3.71,1.46,8.44,9.33,0
29.1,2.06,0.414,6.62,6.95,0
29.1,0.282,-0.532,3.71,3.76,0
29.1,-1.17,-1.15,0.78,1.82,0
29.1,-2.11,-1.4,-1.14,2.78,0
29.1,-2.39,-1.35,-2.15,3.49,0
29.2,-2.14,-1.25,-2.46,3.49,0
29.2,-1.49,-1.21,-2.05,2.81,0
29.2,-0.716,-1.2,-1.28,1.89,0
29.2,-0.373,-1.26,-0.878,1.58,0
29.2,-0.354,-1.41,-0.67,1.6,0
29.2,-0.565,-1.66,-0.189,1.76,0
29.2,-0.886,-2.0,0.169,2.19,0
29.2,-1.31,-2.27,0.0543,2.62,0
29.2,-1.78,-2.45,-0.494,3.06,0
29.2,-2.17,-2.5,-1.28,3.55,0
29.3,-2.51,-2.6,-2.15,4.21,0
29.3,-2.79,-2.56,-2.83,4.72,0
29.3,-3.01,-2.44,-3.33,5.11,0
29.3,-3.17,-2.32,-3.62,5.35,0
29.3,-3.21,-2.18,-3.75,5.39,0
29.3,-3.05,-2.01,-3.69,5.19,0
29.3,-2.83,-1.83,-3.47,4.84,0
29.3,-2.65,-1.62,-3.14,4.42,0
29.3,-2.45,-1.41,-2.95,4.08,0
29.3,-2.26,-1.2,-2.98,3.93,0
29.4,-2.14,-0.997,-2.93,3.76,0
29.4,-1.98,-0.828,-2.69,3.44,0
29.4,-1.86,-0.709,-2.33,3.07,0
29.4,-1.76,-0.67,-1.96,2.72,0
29.4,-1.43,-0.611,-1.42,2.1,0
29.4,-0.744,-0.55,-0.77,1.2,0
29.4,0.104,-0.334,-0.0415,0.353,0
29.4,0.771,0.126,0.745,1.08,0
29.4,1.12,0.519,1.4,1.87,0
29.4,1.34,0.579,1.98,2.46,0
29.5,1.51,0.465,2.63,3.07,0
29.5,1.82,0.445,3.26,3.76,0
29.5,2.08,0.74,3.45,4.1,0
29.5,2.32,1.2,3.32,4.22,0
29.5,2.28,1.63,3.02,4.12,0
29.5,1.86,1.9,2.23,3.47,0
29.5,1.42,2.06,1.15,2.76,0
29.5,1.15,2.22,0.286,2.52,0
29.5,1.09,2.3,-0.412,2.58,0
29.5,1.99,2.05,-0.014,2.86,0
29.6,4.02,1.76,2.25,4.94,0
29.6,6.23,1.78,5.26,8.35,0
29.6,7.51,1.92,7.56,10.8,0
29.6,7.27,1.66,8.29,11.1,0
29.6,5.58,0.521,7.01,8.98,0
29.6,3.31,-0.826,4.61,5.74,0
29.6,1.45,-1.76,2.39,3.31,0
29.6,0.098,-2.29,0.893,2.46,0
29.6,-0.58,-2.33,0.0259,2.4,0
29.6,-0.567,-2.2,-0.47,2.32,0
29.7,0.0427,-1.96,-0.782,2.11,0
29.7,0.824,-1.52,-1.13,2.07,0
29.7,1.42,-1.03,-1.7,2.44,0
29.7,1.73,-0.648,-2.37,3.0,0
29.7,1.83,-0.389,-2.92,3.47,0
29.7,1.6,-0.282,-3.43,3.79,0
29.7,1.05,-0.375,-3.85,4.01,0
29.7,0.375,-0.654,-4.25,4.32,0
29.7,-0.402,-0.942,-4.58,4.7,0
29.7,-1.1,-1.2,-4.67,4.95,0
29.8,-1.61,-1.43,-4.56,5.04,0
29.8,-1.98,-1.53,-4.35,5.02,0
29.8,-2.11,-1.56,-4.02,4.8,0
29.8,-2.09,-1.44,-3.61,4.41,0
29.8,-2.08,-1.28,-3.25,4.06,0
29.8,-2.05,-1.11,-3.07,3.85,0
29.8,-2.03,-0.923,-3.04,3.77,0
29.8,-2.06,-0.735,-2.96,3.68,0
29.8,-2.12,-0.568,-2.7,3.47,0
29.8,-2.12,-0.401,-2.44,3.25,0
29.9,-1.83,-0.202,-2.26,2.92,0
29.9,-1.35,0.203,-1.99,2.41,0
29.9,-0.859,0.637,-1.59,1.92,0
29.9,-0.439,0.97,-1.02,1.47,0
29.9,-0.0617,1.25,-0.337,1.3,0
29.9,0.185,1.51,0.633,1.65,0
29.9,0.197,1.7,1.76,2.46,0
29.9,0.164,1.71,2.78,3.27,0
29.9,0.0257,1.71,3.58,3.96,0
29.9,-0.0747,1.73,4.16,4.51,0
30.0,-0.153,1.83,4.38,4.75,0
30.0,-0.205,2.0,4.16,4.62,0
30.0,-0.229,2.11,3.72,4.28,0
30.0,-0.139,2.15,3.19,3.85,0
30.0,-0.15,2.32,2.68,3.55,0
30.0,-0.509,2.49,2.17,3.34,0
30.0,-0.971,2.61,1.44,3.14,0
30.0,-1.27,2.68,0.561,3.02,0
30.0,-1.24,2.7,0.0998,2.97,0
30.0,-0.623,2.53,0.526,2.66,0
30.1,0.391,2.2,1.88,2.92,0
30.1,1.1,1.77,3.06,3.7,0
30.1,1.33,1.4,4.21,4.63,0
30.1,0.95,0.934,4.52,4.71,0
30.1,0.00694,0.329,3.46,3.48,0
30.1,-0.998,-0.191,1.88,2.13,0
30.1,-1.63,-0.48,0.542,1.79,0
30.1,-1.91,-0.55,-0.216,1.99,0
30.1,-1.81,-0.619,-0.533,1.99,0
30.1,-1.48,-0.751,-0.405,1.71,0
30.2,-0.974,-1.03,-0.0629,1.42,0
30.2,-0.383,-1.17,0.37,1.29,0
30.2,-0.0311,-1.2,0.794,1.44,0
30.2,0.0845,-1.33,1.02,1.68,0
30.2,0.112,-1.56,0.89,1.8,0
30.2,0.0182,-1.77,0.403,1.82,0
30.2,-0.263,-1.9,-0.292,1.94,0
30.2,-0.571,-2.08,-1.18,2.46,0
30.2,-0.813,-2.25,-1.94,3.08,0
30.2,-1.2,-2.4,-2.6,3.73,0
30.3,-1.46,-2.44,-2.96,4.1,0
30.3,-1.67,-2.41,-3.22,4.35,0
30.3,-1.81,-2.41,-3.36,4.52,0
30.3,-1.83,-2.4,-3.39,4.54,0
30.3,-1.78,-2.33,-3.37,4.47,0
30.3,-1.71,-2.14,-3.3,4.29,0
30.3,-1.68,-1.93,-3.4,4.25,0
30.3,-1.64,-1.74,-3.66,4.37,0
30.3,-1.61,-1.56,-3.93,4.52,0
30.3,-1.46,-1.37,-4.02,4.49,0
30.4,-1.05,-1.08,-3.68,3.97,0
30.4,-0.574,-0.706,-2.96,3.1,0
30.4,-0.244,-0.358,-2.32,2.36,0
30.4,-0.0958,-0.125,-1.97,1.97,0
30.4,0.136,0.0647,-1.47,1.48,0
30.4,0.381,0.258,-0.941,1.05,0
30.4,0.663,0.457,-0.386,0.893,0
30.4,1.08,0.62,0.481,1.33,0
30.4,1.66,0.717,1.67,2.47,0
30.4,2.13,0.992,2.82,3.67,0
30.5,2.39,1.36,3.47,4.43,0
30.5,2.43,1.62,3.65,4.68,0
30.5,2.06,1.84,3.27,4.29,0
30.5,1.55,1.95,2.19,3.31,0
30.5,1.27,2.11,1.26,2.77,0
30.5,1.2,2.29,0.636,2.66,0
30.5,1.64,2.04,0.554,2.67,0
30.5,3.11,1.67,1.99,4.05,0
30.5,5.03,1.69,4.32,6.85,0
30.5,6.71,1.86,6.64,9.62,0
30.6,7.21,1.91,7.68,10.7,0
30.6,6.29,1.32,6.75,9.32,0
30.6,4.61,0.0715,4.76,6.63,0
30.6,3.08,-1.07,3.01,4.44,0
30.6,1.92,-1.76,1.76,3.15,0
30.6,1.3,-1.98,1.3,2.7,0
30.6,1.13,-1.89,1.27,2.54,0
30.6,1.14,-1.81,1.13,2.42,0
30.6,1.28,-1.82,0.731,2.34,0
30.6,1.31,-1.77,0.321,2.23,0
30.7,1.13,-1.71,-0.189,2.05,0
30.7,0.972,-1.57,-0.686,1.97,0
30.7,0.967,-1.45,-1.04,2.03,0
30.7,0.944,-1.35,-1.41,2.17,0
30.7,0.797,-1.26,-1.86,2.39,0
30.7,0.535,-1.21,-2.26,2.62,0
30.7,0.175,-1.27,-2.72,3.01,0
30.7,-0.22,-1.34,-3.22,3.5,0
30.7,-0.634,-1.42,-3.74,4.05,0
30.7,-1.0,-1.51,-4.17,4.55,0
30.8,-1.44,-1.52,-4.45,4.92,0
30.8,-1.83,-1.53,-4.7,5.27,0
30.8,-2.11,-1.49,-4.84,5.49,0
30.8,-2.24,-1.3,-4.84,5.49,0
30.8,-2.28,-1.04,-4.66,5.29,0
30.8,-2.24,-0.809,-4.33,4.95,0
30.8,-2.17,-0.521,-4.02,4.6,0
30.8,-2.16,-0.276,-3.65,4.25,0
30.8,-2.12,-0.114,-3.09,3.75,0
30.8,-1.89,0.0587,-2.53,3.15,0
30.9,-1.49,0.376,-2.06,2.56,0
30.9,-1.13,0.786,-1.71,2.19,0
30.9,-0.883,1.13,-1.33,1.96,0
30.9,-0.689,1.39,-0.677,1.69,0
30.9,-0.599,1.62,0.181,1.73,0
30.9,-0.502,1.81,1.29,2.28,0
30.9,-0.308,1.96,2.46,3.16,0
30.9,-0.168,2.14,3.29,3.93,0
30.9,-0.0736,2.31,3.61,4.29,0
31.0,-0.0728,2.38,3.51,4.24,0
31.0,-0.177,2.47,3.12,3.98,0
31.0,-0.318,2.66,2.77,3.85,0
31.0,-0.506,2.8,2.49,3.78,0
31.0,-0.679,2.84,1.96,3.51,0
31.0,-0.509,2.68,1.57,3.15,0
31.0,0.553,2.5,2.03,3.27,0
31.0,1.91,2.54,3.47,4.7,0
31.0,3.19,2.49,5.21,6.6,0
31.0,3.76,2.31,6.48,7.84,0
31.1,3.02,1.7,6.27,7.16,0
31.1,1.4,0.631,4.56,4.81,0
31.1,-0.0828,-0.38,2.45,2.48,0
31.1,-1.36,-1.0,0.503,1.76,0
31.1,-2.18,-1.34,-0.767,2.67,0
31.1,-2.47,-1.47,-1.35,3.18,0
31.1,-2.33,-1.5,-1.41,3.11,0
31.1,-1.91,-1.53,-1.07,2.67,0
31.1,-1.29,-1.53,-0.63,2.1,0
31.1,-0.649,-1.5,-0.295,1.66,0
31.2,-0.381,-1.49,-0.301,1.57,0
31.2,-0.315,-1.62,-0.651,1.77,0
31.2,-0.478,-1.77,-0.981,2.08,0
31.2,-0.732,-1.89,-1.23,2.37,0
31.2,-1.01,-1.98,-1.51,2.69,0
31.2,-1.32,-2.02,-1.91,3.08,0
31.2,-1.57,-2.04,-2.25,3.42,0
31.2,-1.84,-2.03,-2.44,3.67,0
31.2,-2.07,-1.95,-2.68,3.91,0
31.2,-2.23,-1.86,-2.91,4.11,0
31.3,-2.25,-1.8,-3.0,4.16,0
31.3,-2.15,-1.68,-2.89,3.98,0
31.3,-1.92,-1.53,-2.69,3.64,0
31.3,-1.58,-1.3,-2.42,3.17,0
31.3,-1.24,-1.06,-2.27,2.8,0
31.3,-0.977,-0.84,-2.37,2.7,0
31.3,-0.849,-0.689,-2.52,2.75,0
31.3,-0.895,-0.627,-2.55,2.77,0
31.3,-1.03,-0.619,-2.43,2.71,0
31.3,-1.15,-0.717,-2.09,2.49,0
31.4,-0.997,-0.746,-1.6,2.03,0
31.4,-0.738,-0.597,-1.1,1.45,0
31.4,-0.434,-0.37,-0.636,0.855,0
31.4,0.0783,-0.259,-0.262,0.377,0
31.4,0.596,-0.0169,0.0798,0.602,0
31.4,1.02,0.388,0.409,1.17,0
31.4,1.47,0.666,0.784,1.8,0
31.4,2.16,0.965,1.47,2.78,0
31.4,2.82,1.49,2.14,3.85,0
31.4,3.21,2.1,2.32,4.48,0
31.5,3.27,2.49,2.25,4.68,0
31.5,3.02,2.5,1.85,4.34,0
31.5,2.38,2.33,1.19,3.53,0
31.5,1.84,2.1,0.382,2.82,0
31.5,2.06,1.73,0.103,2.69,0
31.5,3.56,1.47,1.44,4.11,0
31.5,5.61,1.54,3.62,6.85,0
31.5,7.06,1.76,5.57,9.16,0
31.5,7.46,1.7,6.41,9.98,0
31.5,6.52,0.938,5.76,8.75,0
31.6,4.61,-0.237,4.0,6.11,0
31.6,2.93,-1.27,2.38,3.98,0
31.6,1.53,-1.88,1.02,2.63,0
31.6,0.439,-2.23,0.0798,2.27,0
31.6,-0.0582,-2.28,-0.165,2.28,0
31.6,-0.211,-2.19,0.0126,2.2,0
31.6,-0.125,-2.06,0.0801,2.07,0
31.6,0.0122,-1.96,-0.236,1.97,0
31.6,0.0934,-1.86,-0.876,2.06,0
31.6,0.0596,-1.72,-1.66,2.39,0
31.7,0.00537,-1.56,-2.52,2.96,0
31.7,-0.0871,-1.43,-3.1,3.42,0
31.7,-0.398,-1.32,-3.52,3.78,0
31.7,-0.768,-1.24,-3.92,4.19,0
31.7,-1.03,-1.22,-4.28,4.57,0
31.7,-1.31,-1.16,-4.5,4.83,0
31.7,-1.6,-1.13,-4.46,4.87,0
31.7,-1.9,-1.15,-4.17,4.72,0
31.7,-2.12,-1.2,-3.52,4.28,0
31.7,-2.19,-1.19,-2.84,3.77,0
31.8,-2.35,-1.08,-2.44,3.56,0
31.8,-2.63,-0.967,-2.25,3.6,0
31.8,-2.77,-0.819,-2.07,3.56,0
31.8,-2.62,-0.527,-1.7,3.16,0
31.8,-2.44,-0.0947,-1.21,2.73,0
31.8,-2.16,0.279,-0.755,2.31,0
31.8,-1.91,0.604,-0.425,2.05,0
31.8,-1.64,0.938,-0.199,1.9,0
31.8,-1.29,1.28,0.248,1.83,0
31.8,-0.868,1.57,1.14,2.13,0
31.9,-0.363,1.9,2.22,2.94,0
31.9,-0.0192,2.22,3.2,3.9,0
31.9,0.234,2.48,3.87,4.6,0
31.9,0.242,2.62,4.22,4.98,0
31.9,-0.0311,2.67,4.17,4.95,0
31.9,-0.417,2.66,3.87,4.71,0
31.9,-0.671,2.75,3.63,4.61,0
31.9,-0.95,2.97,3.52,4.7,0
31.9,-1.35,3.22,3.14,4.7,0
31.9,-1.48,3.42,2.56,4.52,0
32.0,-1.47,3.5,1.85,4.22,0
32.0,-0.866,3.3,1.51,3.73,0
32.0,0.748,2.94,2.67,4.04,0
32.0,2.53,2.62,4.94,6.14,0
32.0,3.88,2.41,7.21,8.53,0
32.0,3.97,2.09,8.12,9.28,0
32.0,2.76,1.16,7.01,7.62,0
32.0,0.816,-0.0463,4.48,4.56,0
32.0,-0.777,-1.01,1.69,2.12,0
32.0,-2.02,-1.55,-0.45,2.59,0
32.1,-2.79,-1.76,-1.76,3.74,0
32.1,-2.96,-1.82,-2.3,4.17,0
32.1,-2.7,-1.87,-2.25,3.98,0
32.1,-2.15,-1.85,-1.87,3.4,0
32.1,-1.56,-1.81,-1.39,2.77,0
32.1,-1.25,-1.9,-1.21,2.58,0
32.1,-1.07,-2.07,-1.25,2.65,0
32.1,-1.02,-2.17,-1.14,2.66,0
32.1,-1.18,-2.32,-1.02,2.8,0
32.1,-1.38,-2.58,-1.24,3.17,0
32.2,-1.68,-2.75,-1.89,3.73,0
32.2,-1.95,-2.77,-2.64,4.29,0
32.2,-2.17,-2.7,-3.18,4.7,0
32.2,-2.36,-2.65,-3.54,5.01,0
32.2,-2.34,-2.53,-3.72,5.07,0
32.2,-2.36,-2.42,-3.72,5.02,0
32.2,-2.4,-2.33,-3.49,4.83,0
32.2,-2.31,-2.19,-3.22,4.53,0
32.2,-2.25,-2.01,-2.9,4.18,0
32.2,-2.16,-1.79,-2.63,3.84,0
32.3,-1.99,-1.56,-2.46,3.53,0
32.3,-1.69,-1.34,-2.28,3.14,0
32.3,-1.29,-1.03,-2.08,2.65,0
32.3,-0.886,-0.699,-1.89,2.21,0
32.3,-0.367,-0.372,-1.45,1.54,0
32.3,0.226,-0.178,-0.697,0.754,0
32.3,0.822,0.0423,0.0637,0.826,0
32.3,1.29,0.382,1.03,1.69,0
32.3,1.67,0.67,1.87,2.6,0
32.3,1.84,0.845,2.05,2.88,0
32.4,1.9,0.962,2.03,2.94,0
32.4,2.04,1.02,2.33,3.25,0
32.4,2.07,1.0,2.51,3.41,0
32.4,2.11,1.1,2.65,3.56,0
32.4,2.34,1.42,3.02,4.08,0
32.4,2.21,1.73,2.85,4.0,0
32.4,1.77,1.86,1.84,3.16,0
32.4,1.24,1.9,0.734,2.39,0
32.4,1.0,2.07,-0.0266,2.3,0
32.4,1.04,2.27,-0.485,2.54,0
32.5,1.43,2.3,-0.55,2.76,0
32.5,2.46,2.1,0.579,3.28,0
32.5,4.0,1.93,2.85,5.28,0
32.5,4.92,1.74,4.8,7.09,0
32.5,4.96,1.23,5.77,7.71,0
32.5,4.38,0.465,5.74,7.24,0
32.5,3.33,-0.266,4.69,5.76,0
32.5,2.17,-0.871,3.29,4.03,0
32.5,1.28,-1.46,2.23,2.96,0
32.5,0.803,-1.91,1.53,2.58,0
32.6,0.608,-2.13,0.911,2.4,0
32.6,0.583,-2.19,0.277,2.28,0
32.6,0.744,-2.17,-0.254,2.31,0
32.6,0.944,-2.06,-0.862,2.42,0
32.6,1.02,-1.84,-1.65,2.67,0
32.6,0.89,-1.58,-2.65,3.21,0
32.6,0.537,-1.49,-3.61,3.94,0
32.6,0.096,-1.5,-4.35,4.6,0
32.6,-0.293,-1.52,-4.7,4.94,0
32.6,-0.71,-1.49,-4.93,5.2,0
32.7,-1.13,-1.5,-5.15,5.49,0
32.7,-1.44,-1.48,-5.29,5.67,0
32.7,-1.65,-1.46,-5.19,5.64,0
32.7,-1.74,-1.43,-4.7,5.21,0
32.7,-1.75,-1.36,-4.04,4.6,0
32.7,-1.75,-1.23,-3.52,4.12,0
32.7,-1.82,-0.997,-3.09,3.72,0
32.7,-1.86,-0.871,-2.71,3.4,0
32.7,-1.93,-0.74,-2.43,3.19,0
32.7,-1.87,-0.534,-2.19,2.92,0
32.8,-1.6,-0.243,-1.85,2.46,0
32.8,-1.17,0.126,-1.09,1.61,0
32.8,-0.585,0.586,-0.00908,0.828,0
32.8,-0.24,1.08,0.459,1.2,0
32.8,-0.156,1.43,0.187,1.45,0
32.8,-0.0888,1.7,0.0683,1.7,0
32.8,-0.171,1.84,0.477,1.91,0
32.8,-0.318,1.84,1.38,2.32,0
32.8,-0.347,1.87,2.53,3.17,0
32.8,-0.44,2.0,3.34,3.91,0
32.9,-0.671,2.11,3.88,4.47,0
32.9,-0.996,2.23,4.16,4.83,0
32.9,-1.42,2.39,4.0,4.87,0
32.9,-2.01,2.62,3.41,4.75,0
32.9,-2.44,2.92,2.45,4.52,0
32.9,-2.1,3.35,1.73,4.31,0
32.9,-0.286,3.75,2.62,4.58,0
32.9,2.2,3.94,4.96,6.71,0
32.9,4.23,3.86,7.0,9.04,0
32.9,5.41,3.42,8.15,10.4,0
33.0,5.08,2.69,7.71,9.61,0
33.0,3.49,1.5,5.71,6.85,0
33.0,1.67,0.323,3.39,3.8,0
33.0,0.145,-0.64,1.2,1.36,0
33.0,-1.17,-1.34,-0.676,1.9,0
33.0,-1.87,-1.7,-1.9,3.16,0
33.0,-2.02,-1.81,-2.37,3.6,0
33.0,-1.75,-1.83,-2.31,3.43,0
33.0,-1.32,-1.83,-1.72,2.84,0
33.0,-0.944,-1.77,-1.26,2.37,0
33.1,-0.879,-1.82,-1.31,2.41,0
33.1,-1.11,-1.95,-1.59,2.75,0
33.1,-1.35,-2.14,-1.88,3.15,0
33.1,-1.5,-2.3,-1.85,3.31,0
33.1,-1.77,-2.35,-1.87,3.49,0
33.1,-2.1,-2.46,-2.13,3.87,0
33.1,-2.35,-2.55,-2.4,4.22,0
33.1,-2.49,-2.56,-2.56,4.4,0
33.1,-2.5,-2.46,-2.72,4.44,0
33.1,-2.38,-2.25,-2.8,4.31,0
33.2,-2.3,-2.05,-2.71,4.11,0
33.2,-2.2,-1.98,-2.65,3.97,0
33.2,-2.13,-1.93,-2.48,3.8,0
33.2,-2.17,-1.82,-2.34,3.67,0
33.2,-2.26,-1.73,-2.46,3.76,0
33.2,-2.26,-1.63,-2.46,3.72,0
33.2,-2.32,-1.54,-2.38,3.66,0
33.2,-2.22,-1.44,-2.38,3.55,0
33.2,-1.79,-1.23,-2.13,3.04,0
33.2,-1.25,-0.881,-1.58,2.2,0
33.3,-0.648,-0.483,-1.04,1.32,0
33.3,-0.0822,-0.0986,-0.481,0.498,0
33.3,0.381,0.248,0.3,0.544,0
33.3,0.52,0.497,1.28,1.47,0
33.3,0.588,0.563,2.06,2.21,0
33.3,0.957,0.763,2.63,2.9,0
33.3,1.37,1.09,3.29,3.73,0
33.3,1.83,1.36,3.97,4.58,0
33.3,2.18,1.52,4.4,5.14,0
33.3,2.22,1.53,4.35,5.12,0
33.4,2.06,1.36,3.8,4.53,0
33.4,1.66,1.26,3.13,3.76,0
33.4,0.921,1.27,2.23,2.73,0
33.4,0.242,1.34,0.908,1.64,0
33.4,0.15,1.45,-0.128,1.46,0
33.4,0.552,1.59,-0.363,1.73,0
33.4,1.47,1.73,0.188,2.28,0
33.4,2.94,1.73,1.24,3.63,0
33.4,4.26,1.79,2.24,5.14,0
33.4,4.96,1.81,2.59,5.88,0
33.5,4.94,1.56,2.3,5.67,0
33.5,4.28,1.03,1.8,4.76,0
33.5,3.44,0.327,1.21,3.66,0
33.5,2.69,-0.293,0.792,2.82,0
33.5,2.1,-0.779,0.594,2.32,0
33.5,1.61,-1.18,0.489,2.06,0
33.5,1.24,-1.49,0.458,1.99,0
33.5,1.0,-1.78,0.323,2.07,0
33.5,0.845,-1.94,0.0446,2.12,0
33.5,0.868,-1.92,-0.198,2.11,0
33.6,0.809,-1.76,-0.94,2.16,0
33.6,0.601,-1.61,-2.17,2.76,0
33.6,0.328,-1.47,-3.21,3.55,0
33.6,0.081,-1.36,-3.91,4.14,0
33.6,-0.16,-1.36,-4.35,4.56,0
33.6,-0.528,-1.31,-4.49,4.71,0
33.6,-0.894,-1.36,-4.43,4.72,0
33.6,-1.07,-1.5,-4.31,4.69,0
33.6,-1.24,-1.53,-4.17,4.61,0
33.6,-1.41,-1.48,-3.92,4.42,0
33.7,-1.57,-1.47,-3.67,4.25,0
33.7,-1.73,-1.46,-3.35,4.04,0
33.7,-1.86,-1.38,-2.99,3.78,0
33.7,-1.93,-1.3,-2.6,3.49,0
33.7,-2.0,-1.14,-2.3,3.26,0
33.7,-1.92,-0.989,-2.06,2.99,0
33.7,-1.78,-0.751,-2.01,2.79,0
33.7,-1.68,-0.455,-1.94,2.61,0
33.7,-1.45,-0.193,-1.39,2.02,0
33.7,-1.08,0.0949,-0.574,1.23,0
33.8,-0.94,0.518,0.0593,1.07,0
33.8,-0.878,0.863,0.588,1.36,0
33.8,-0.921,1.1,1.2,1.87,0
33.8,-1.2,1.22,1.91,2.56,0
33.8,-1.52,1.27,2.67,3.33,0
33.8,-1.68,1.41,3.31,3.97,0
33.8,-1.57,1.71,3.87,4.51,0
33.8,-1.35,2.09,4.21,4.89,0
33.8,-1.04,2.49,4.24,5.03,0
33.8,-0.788,2.94,4.05,5.06,0
33.9,-0.549,3.35,3.51,4.89,0
33.9,0.0529,3.79,3.16,4.93,0
33.9,1.13,4.18,3.53,5.59,0
33.9,2.63,4.29,4.6,6.82,0
33.9,3.97,4.15,5.71,8.1,0
33.9,4.78,3.6,6.34,8.72,0
33.9,4.63,2.74,6.34,8.31,0
33.9,3.27,1.65,5.15,6.32,0
33.9,1.56,0.537,3.43,3.8,0
33.9,0.00147,-0.383,1.47,1.52,0
34.0,-1.54,-1.02,-0.472,1.91,0
34.0,-2.59,-1.26,-2.01,3.51,0
34.0,-2.94,-1.31,-2.84,4.29,0
34.0,-2.72,-1.23,-2.87,4.14,0
34.0,-2.05,-1.06,-2.12,3.14,0
34.0,-0.91,-0.911,-1.09,1.68,0
34.0,0.115,-0.745,-0.219,0.785,0
34.0,0.788,-0.642,0.328,1.07,0
34.0,1.21,-0.692,0.59,1.52,0
34.0,1.17,-0.893,0.432,1.53,0
34.1,0.682,-1.32,-0.168,1.5,0
34.1,-0.0423,-1.82,-0.896,2.03,0
34.1,-0.738,-2.2,-1.48,2.75,0
34.1,-1.19,-2.57,-1.98,3.45,0
34.1,-1.66,-2.83,-2.39,4.06,0
34.1,-1.98,-2.9,-2.7,4.43,0
34.1,-2.02,-2.94,-2.91,4.61,0
34.1,-1.86,-2.86,-2.95,4.52,0
34.1,-1.68,-2.67,-2.98,4.34,0
34.1,-1.64,-2.49,-3.04,4.26,0
34.2,-1.65,-2.41,-3.15,4.3,0
34.2,-1.79,-2.32,-3.35,4.45,0
34.2,-2.06,-2.16,-3.52,4.62,0
34.2,-2.19,-1.92,-3.49,4.55,0
34.2,-2.14,-1.58,-3.31,4.24,0
34.2,-2.04,-1.2,-3.09,3.89,0
34.2,-1.69,-0.822,-2.58,3.19,0
34.2,-1.07,-0.23,-1.65,1.98,0
34.2,-0.32,0.475,-0.518,0.772,0
34.2,0.48,1.18,0.738,1.47,0
34.3,1.17,1.74,1.89,2.82,0
34.3,1.74,2.04,2.91,3.96,0
34.3,2.11,2.27,3.75,4.87,0
34.3,2.35,2.41,4.27,5.44,0
34.3,2.46,2.37,4.22,5.43,0
34.3,2.41,2.37,3.67,4.99,0
34.3,2.15,2.42,2.83,4.3,0
34.3,1.79,2.5,1.97,3.65,0
34.3,1.35,2.57,1.13,3.12,0
34.3,0.971,2.68,0.113,2.86,0
34.4,0.789,2.91,-0.871,3.14,0
34.4,0.851,3.05,-1.37,3.45,0
34.4,1.42,2.97,-1.36,3.56,0
34.4,3.1,2.83,-0.0557,4.2,0
34.4,5.12,2.84,1.99,6.18,0
34.4,6.55,2.86,3.69,8.04,0
34.4,6.77,2.46,4.35,8.41,0
34.4,5.83,1.34,3.93,7.16,0
34.4,4.21,-0.0571,2.63,4.96,0
34.4,2.79,-1.14,1.35,3.3,0
34.5,1.59,-1.94,0.329,2.53,0
34.5,0.878,-2.42,-0.13,2.58,0
34.5,0.552,-2.66,-0.274,2.73,0
34.5,0.397,-2.83,-0.442,2.89,0
34.5,0.282,-2.97,-0.74,3.08,0
34.5,0.118,-3.04,-1.32,3.32,0
34.5,-0.0536,-3.04,-2.09,3.69,0
34.5,-0.0314,-2.91,-2.77,4.01,0
34.5,0.066,-2.68,-3.22,4.19,0
34.5,0.177,-2.45,-3.44,4.23,0
34.6,0.318,-2.3,-3.33,4.05,0
34.6,0.43,-2.22,-3.2,3.92,0
34.6,0.289,-2.21,-3.2,3.9,0
34.6,0.00707,-2.31,-3.36,4.08,0
34.6,-0.476,-2.48,-3.5,4.32,0
34.6,-1.03,-2.68,-3.56,4.57,0
34.6,-1.55,-2.81,-3.53,4.77,0
34.6,-1.88,-2.84,-3.54,4.91,0
34.6,-1.96,-2.64,-3.57,4.86,0
34.6,-1.94,-2.31,-3.47,4.6,0
34.7,-1.96,-1.98,-3.27,4.3,0
34.7,-1.98,-1.66,-2.98,3.95,0
34.7,-1.94,-1.37,-2.59,3.51,0
34.7,-1.87,-1.04,-2.13,3.02,0
34.7,-1.8,-0.583,-1.8,2.61,0
34.7,-1.6,9.94e-06,-1.49,2.19,0
34.7,-1.23,0.641,-0.853,1.63,0
34.7,-0.793,1.26,0.336,1.52,0
34.7,-0.32,1.92,1.92,2.73,0
34.7,0.269,2.5,3.45,4.27,0
34.8,0.891,2.99,4.73,5.66,0
34.8,1.28,3.38,5.45,6.54,0
34.8,1.37,3.6,5.67,6.85,0
34.8,1.06,3.71,5.4,6.63,0
34.8,0.212,3.72,4.47,5.82,0
34.8,-0.767,3.64,3.32,4.99,0
34.8,-1.54,3.73,2.21,4.6,0
34.8,-1.91,3.87,1.13,4.46,0
34.8,-1.55,3.91,0.896,4.3,0
34.8,-0.141,3.85,2.04,4.36,0
34.9,1.85,3.67,4.01,5.75,0
34.9,3.59,3.42,6.22,7.96,0
34.9,4.23,3.13,7.5,9.16,0
34.9,3.09,2.34,6.7,7.74,0
34.9,0.906,1.07,4.59,4.79,0
34.9,-0.849,-0.0751,2.41,2.56,0
34.9,-2.21,-0.76,0.744,2.45,0
34.9,-2.89,-1.01,-0.25,3.07,0
34.9,-2.72,-1.07,-0.466,2.96,0
34.9,-1.96,-1.11,0.0544,2.25,0
35.0,-0.948,-1.05,0.818,1.63,0
35.0,-0.382,-1.04,1.04,1.52,0
35.0,-0.151,-1.17,0.679,1.36,0
35.0,-0.0935,-1.38,0.272,1.41,0
35.0,-0.278,-1.67,-0.0981,1.69,0
35.0,-0.681,-1.99,-0.672,2.21,0
35.0,-1.17,-2.36,-1.4,2.98,0
35.0,-1.58,-2.67,-2.02,3.71,0
35.0,-1.8,-2.81,-2.42,4.12,0
35.0,-2.05,-2.86,-2.88,4.54,0
35.1,-2.19,-2.9,-3.23,4.86,0
35.1,-2.24,-2.9,-3.35,4.96,0
35.1,-2.22,-2.86,-3.26,4.87,0
35.1,-2.19,-2.76,-3.12,4.71,0
35.1,-2.2,-2.66,-3.16,4.68,0
35.1,-2.25,-2.58,-3.18,4.67,0
35.1,-2.27,-2.45,-3.17,4.61,0
35.1,-2.26,-2.28,-3.26,4.58,0
35.1,-2.11,-2.04,-3.28,4.41,0
35.1,-1.7,-1.69,-3.15,3.96,0
35.2,-1.27,-1.23,-2.81,3.32,0
35.2,-0.816,-0.81,-2.26,2.54,0
35.2,-0.344,-0.438,-1.66,1.75,0
35.2,0.182,-0.07,-0.688,0.715,0
35.2,0.6,0.291,0.339,0.748,0
35.2,0.696,0.635,0.808,1.24,0
35.2,0.62,0.823,1.22,1.59,0
35.2,0.691,0.805,1.85,2.13,0
35.2,1.06,0.853,2.52,2.86,0
35.2,1.58,1.14,3.0,3.58,0
35.3,2.17,1.56,3.28,4.23,0
35.3,2.63,1.93,3.23,4.59,0
35.3,2.69,2.18,2.85,4.48,0
35.3,2.23,2.28,2.28,3.92,0
35.3,1.61,2.17,1.6,3.14,0
35.3,1.08,2.1,0.697,2.46,0
35.3,0.936,2.1,-0.0234,2.3,0
35.3,1.15,2.15,-0.218,2.44,0
35.3,2.02,2.03,0.249,2.87,0
35.3,3.75,1.93,1.56,4.49,0
35.4,5.36,2.03,3.07,6.51,0
35.4,6.5,2.07,4.07,7.95,0
35.4,6.48,1.81,4.27,7.97,0
35.4,5.41,0.999,3.56,6.55,0
35.4,4.0,-0.114,2.43,4.68,0
35.4,2.81,-1.0,1.45,3.31,0
35.4,1.96,-1.44,0.906,2.6,0
35.4,1.38,-1.65,0.787,2.29,0
35.4,1.09,-1.95,0.676,2.33,0
35.4,0.909,-2.19,0.465,2.42,0
35.5,0.765,-2.27,-0.0196,2.39,0
35.5,0.596,-2.24,-0.917,2.5,0
35.5,0.371,-2.18,-2.05,3.01,0
35.5,0.0172,-2.12,-3.2,3.84,0
35.5,-0.396,-2.14,-4.09,4.64,0
35.5,-0.803,-2.18,-4.49,5.05,0
35.5,-1.16,-2.24,-4.55,5.2,0
35.5,-1.5,-2.28,-4.53,5.29,0
35.5,-1.95,-2.31,-4.58,5.49,0
35.5,-2.28,-2.35,-4.56,5.61,0
35.6,-2.48,-2.35,-4.32,5.5,0
35.6,-2.63,-2.23,-3.79,5.12,0
35.6,-2.64,-2.11,-3.25,4.69,0
35.6,-2.56,-1.96,-2.87,4.32,0
35.6,-2.38,-1.64,-2.76,3.99,0
35.6,-2.22,-1.24,-2.64,3.67,0
35.6,-2.05,-0.854,-2.49,3.34,0
35.6,-1.93,-0.51,-2.33,3.07,0
35.6,-1.68,-0.182,-1.95,2.58,0
35.6,-1.42,0.223,-1.31,1.95,0
35.7,-1.09,0.626,-0.656,1.42,0
35.7,-0.725,0.984,0.000281,1.22,0
35.7,-0.333,1.32,0.793,1.58,0
35.7,0.0553,1.68,1.64,2.35,0
35.7,0.375,1.98,2.52,3.22,0
35.7,0.547,2.18,3.4,4.07,0
35.7,0.536,2.24,4.02,4.63,0
35.7,0.425,2.2,4.27,4.83,0
35.7,0.142,2.25,4.18,4.75,0
35.7,-0.257,2.3,3.9,4.54,0
35.8,-0.59,2.36,3.67,4.4,0
35.8,-0.903,2.58,3.22,4.23,0
35.8,-1.1,2.89,2.69,4.1,0
35.8,-1.08,3.16,2.23,4.01,0
35.8,-0.84,3.43,1.88,4.0,0
35.8,-0.195,3.48,1.71,3.88,0
35.8,1.01,3.37,2.26,4.18,0
35.8,2.38,3.21,3.67,5.42,0
35.8,3.48,2.91,5.28,6.96,0
35.8,3.61,2.4,6.08,7.47,0
35.9,2.38,1.56,5.42,6.13,0
35.9,0.588,0.448,3.73,3.8,0
35.9,-1.01,-0.505,1.7,2.04,0
35.9,-2.26,-1.04,0.135,2.49,0
35.9,-2.86,-1.25,-0.763,3.22,0
35.9,-2.8,-1.29,-1.08,3.26,0
35.9,-2.26,-1.25,-0.974,2.76,0
35.9,-1.42,-1.16,-0.619,1.94,0
35.9,-0.643,-1.11,-0.335,1.33,0
35.9,-0.257,-1.08,-0.408,1.18,0
36.0,-0.151,-1.2,-0.584,1.34,0
36.0,-0.353,-1.47,-0.76,1.69,0
36.0,-0.861,-1.82,-1.0,2.25,0
36.0,-1.31,-2.24,-1.26,2.88,0
36.0,-1.52,-2.5,-1.3,3.2,0
36.0,-1.81,-2.62,-1.53,3.53,0
36.0,-1.95,-2.69,-1.97,3.87,0
36.0,-2.07,-2.7,-2.36,4.14,0
36.0,-2.13,-2.65,-2.69,4.34,0
36.0,-2.18,-2.56,-2.91,4.45,0
36.1,-2.12,-2.5,-3.0,4.44,0
36.1,-2.05,-2.36,-2.99,4.33,0
36.1,-2.02,-2.22,-3.01,4.25,0
36.1,-1.92,-2.05,-2.92,4.05,0
36.1,-1.75,-1.87,-2.81,3.8,0
36.1,-1.59,-1.59,-2.8,3.59,0
36.1,-1.56,-1.33,-2.67,3.37,0
36.1,-1.62,-1.17,-2.29,3.04,0
36.1,-1.57,-1.1,-1.89,2.69,0
36.1,-1.31,-0.841,-1.6,2.23,0
36.2,-0.971,-0.434,-1.23,1.63,0
36.2,-0.595,-0.0859,-0.696,0.92,0
36.2,-0.0418,0.284,0.16,0.329,0
36.2,0.67,0.691,1.25,1.58,0
36.2,1.37,1.25,2.45,3.07,0
36.2,1.98,1.65,3.53,4.37,0
36.2,2.36,1.78,4.27,5.19,0
36.2,2.4,1.77,4.31,5.24,0
36.2,2.19,1.65,3.94,4.8,0
36.2,2.09,1.68,3.82,4.67,0
36.3,1.55,1.86,3.23,4.03,0
36.3,0.52,1.92,1.46,2.47,0
36.3,-0.373,2.04,-0.458,2.12,0
36.3,-0.841,2.31,-1.86,3.08,0
36.3,-0.667,2.67,-2.54,3.74,0
36.3,0.928,2.85,-1.47,3.34,0
36.3,3.86,3.01,1.38,5.09,0
36.3,6.55,3.16,4.58,8.59,0
36.3,7.68,3.07,6.44,10.5,0
36.3,6.88,2.11,6.36,9.6,0
36.4,4.7,0.561,4.68,6.66,0
36.4,2.52,-0.738,2.83,3.86,0
36.4,0.986,-1.71,1.38,2.41,0
36.4,0.227,-2.24,0.747,2.37,0
36.4,0.125,-2.42,0.747,2.54,0
36.4,0.382,-2.5,0.827,2.66,0
36.4,0.726,-2.47,0.652,2.66,0
36.4,1.02,-2.3,0.0731,2.52,0
36.4,1.32,-2.05,-0.839,2.57,0
36.4,1.57,-1.7,-1.81,2.94,0
36.5,1.5,-1.35,-2.66,3.34,0
36.5,1.09,-1.25,-3.45,3.83,0
36.5,0.561,-1.37,-4.1,4.36,0
36.5,-0.044,-1.52,-4.58,4.83,0
36.5,-0.576,-1.61,-4.98,5.27,0
36.5,-0.887,-1.64,-5.14,5.47,0
36.5,-1.0,-1.66,-5.06,5.42,0
36.5,-1.04,-1.65,-4.53,4.94,0
36.5,-1.04,-1.52,-3.7,4.14,0
36.5,-1.1,-1.44,-3.22,3.7,0
36.6,-1.07,-1.39,-3.0,3.47,0
36.6,-1.07,-1.24,-2.87,3.31,0
36.6,-1.24,-0.988,-2.83,3.24,0
36.6,-1.47,-0.847,-2.66,3.15,0
36.6,-1.66,-0.749,-2.56,3.14,0
36.6,-1.69,-0.488,-2.58,3.12,0
36.6,-1.45,-0.0843,-2.38,2.79,0
36.6,-1.07,0.285,-1.76,2.08,0
36.6,-0.714,0.598,-0.842,1.26,0
36.6,-0.375,0.833,0.291,0.959,0
36.7,-0.135,1.1,1.2,1.63,0
36.7,-0.19,1.32,1.66,2.13,0
36.7,-0.416,1.45,1.96,2.48,0
36.7,-0.716,1.57,2.45,3.0,0
36.7,-1.05,1.67,2.93,3.53,0
36.7,-1.26,1.71,3.14,3.79,0
36.7,-1.24,1.78,3.27,3.93,0
36.7,-1.19,1.94,3.45,4.13,0
36.7,-1.07,2.18,3.54,4.29,0
36.7,-1.06,2.5,3.28,4.26,0
36.8,-1.52,2.6,2.17,3.71,0
36.8,-2.02,2.54,0.756,3.33,0
36.8,-2.0,2.58,0.126,3.27,0
36.8,-0.763,2.51,1.21,2.89,0
36.8,0.925,2.21,3.33,4.1,0
36.8,2.44,1.87,5.92,6.67,0
36.8,3.14,1.57,7.34,8.14,0
36.8,2.6,1.07,6.67,7.24,0
36.8,1.24,0.543,4.79,4.98,0
36.8,-0.0908,-0.0249,2.62,2.63,0
36.9,-1.18,-0.388,0.302,1.28,0
36.9,-1.82,-0.406,-1.4,2.33,0
36.9,-1.69,-0.25,-2.11,2.71,0
36.9,-0.84,-0.00355,-1.89,2.06,0
36.9,0.227,0.199,-1.12,1.16,0
36.9,0.983,0.412,-0.74,1.3,0
36.9,1.21,0.567,-0.999,1.67,0
36.9,1.06,0.635,-1.47,1.93,0
36.9,0.889,0.828,-2.02,2.36,0
36.9,0.796,1.14,-2.63,2.98,0
37.0,0.766,1.44,-3.13,3.53,0
37.0,0.752,1.74,-3.32,3.82,0
37.0,0.774,1.85,-3.24,3.81,0
37.0,0.949,1.78,-3.0,3.61,0
37.0,1.11,1.57,-2.61,3.24,0
37.0,1.0,1.23,-2.04,2.58,0
37.0,0.937,0.663,-1.34,1.76,0
37.0,1.15,0.0878,-0.592,1.29,0
37.0,1.43,-0.234,0.0254,1.45,0
37.0,1.5,-0.506,0.164,1.59,0
37.1,1.42,-0.74,-0.245,1.62,0
37.1,1.2,-0.864,-1.04,1.81,0
37.1,0.783,-0.974,-1.97,2.33,0
37.1,0.0954,-1.23,-2.75,3.02,0
37.1,-0.518,-1.6,-3.23,3.64,0
37.1,-0.848,-1.91,-3.53,4.11,0
37.1,-1.16,-2.15,-3.65,4.39,0
37.1,-1.34,-2.43,-3.31,4.32,0
37.1,-1.17,-2.65,-2.74,3.99,0
37.1,-0.984,-2.67,-2.2,3.6,0
37.2,-0.823,-2.64,-1.52,3.15,0
37.2,-0.669,-2.54,-0.765,2.74,0
37.2,-0.624,-2.29,-0.0835,2.37,0
37.2,-0.704,-2.13,0.313,2.26,0
37.2,-0.975,-2.02,0.845,2.4,0
37.2,-1.07,-2.0,1.51,2.73,0
37.2,-0.845,-1.94,2.27,3.1,0
37.2,-0.395,-1.47,3.33,3.66,0
37.2,0.082,-0.565,4.23,4.27,0
37.2,0.514,0.513,4.08,4.15,0
37.3,0.795,1.35,3.09,3.47,0
37.3,1.28,1.67,2.03,2.93,0
37.3,1.98,1.65,1.83,3.16,0
37.3,2.39,1.53,2.59,3.84,0
37.3,2.68,1.19,3.98,4.94,0
37.3,2.74,0.714,5.0,5.75,0
37.3,2.38,0.241,5.04,5.58,0
37.3,1.68,-0.176,4.37,4.68,0
37.3,1.07,-0.559,3.42,3.63,0
37.3,0.766,-0.821,2.47,2.71,0
37.4,0.588,-0.949,1.84,2.15,0
37.4,0.597,-1.03,1.55,1.95,0
37.4,0.746,-1.03,1.31,1.83,0
37.4,0.913,-1.02,1.04,1.72,0
37.4,1.03,-1.08,0.65,1.63,0
37.4,1.03,-1.14,0.0632,1.54,0
37.4,1.01,-1.16,-0.608,1.65,0
37.4,0.923,-1.18,-1.29,1.98,0
37.4,0.796,-1.12,-2.04,2.46,0
37.4,0.643,-1.03,-2.85,3.09,0
37.5,0.485,-0.993,-3.47,3.64,0
37.5,0.252,-0.935,-3.76,3.88,0
37.5,0.00379,-0.94,-3.92,4.03,0
37.5,-0.337,-1.0,-4.02,4.16,0
37.5,-0.753,-1.14,-4.09,4.32,0
37.5,-1.18,-1.26,-4.07,4.42,0
37.5,-1.51,-1.31,-3.86,4.35,0
37.5,-1.62,-1.24,-3.79,4.3,0
37.5,-1.76,-0.903,-3.82,4.3,0
37.5,-1.88,-0.643,-3.6,4.11,0
37.6,-1.9,-0.53,-3.09,3.66,0
37.6,-1.79,-0.333,-2.8,3.34,0
37.6,-1.65,0.0227,-2.67,3.14,0
37.6,-1.41,0.335,-2.52,2.91,0
37.6,-1.05,0.641,-2.17,2.49,0
37.6,-0.818,0.886,-1.61,2.01,0
37.6,-0.548,0.894,-0.782,1.31,0
37.6,-0.443,0.899,0.229,1.03,0
37.6,-0.644,0.857,1.09,1.53,0
37.6,-1.03,0.673,1.56,1.99,0
37.7,-1.53,0.514,1.65,2.31,0
37.7,-1.95,0.451,1.54,2.53,0
37.7,-2.08,0.481,1.72,2.74,0
37.7,-1.88,0.553,2.21,2.95,0
37.7,-1.66,0.803,2.58,3.18,0
37.7,-1.56,1.06,2.94,3.5,0
37.7,-1.45,1.2,3.2,3.71,0
37.7,-1.5,1.45,3.05,3.7,0
37.7,-1.62,1.94,2.47,3.54,0
37.7,-1.59,2.4,1.75,3.37,0
37.8,-1.58,2.69,0.92,3.26,0
37.8,-1.25,2.57,0.518,2.91,0
37.8,-0.44,2.11,1.55,2.65,0
37.8,0.373,1.49,3.56,3.87,0
37.8,0.915,0.815,5.83,5.95,0
37.8,1.05,0.277,7.55,7.63,0
37.8,0.588,-0.15,7.3,7.33,0
37.8,-0.348,-0.455,5.1,5.13,0
37.8,-1.2,-0.64,2.56,2.9,0
37.8,-1.98,-0.855,0.538,2.22,0
37.9,-2.38,-1.08,-0.332,2.64,0
37.9,-2.3,-1.28,-0.283,2.65,0
37.9,-1.96,-1.42,-0.0596,2.42,0
37.9,-1.27,-1.47,-0.102,1.95,0
37.9,-0.393,-1.43,-0.103,1.49,0
37.9,0.338,-1.21,0.0369,1.26,0
37.9,0.687,-1.08,-0.0653,1.28,0
37.9,0.736,-1.14,-0.492,1.45,0
37.9,0.615,-1.32,-1.02,1.78,0
37.9,0.353,-1.48,-1.6,2.21,0
38.0,0.0767,-1.61,-2.28,2.8,0
38.0,-0.0826,-1.72,-2.85,3.33,0
38.0,-0.162,-1.71,-3.14,3.58,0
38.0,-0.249,-1.7,-3.27,3.69,0
38.0,-0.249,-1.69,-3.3,3.71,0
38.0,-0.155,-1.66,-3.38,3.77,0
38.0,-0.0351,-1.56,-3.46,3.79,0
38.0,0.0557,-1.45,-3.46,3.75,0
38.0,0.0488,-1.42,-3.42,3.71,0
38.0,-0.0194,-1.39,-3.32,3.6,0
38.1,-0.126,-1.3,-3.35,3.6,0
38.1,-0.183,-1.15,-3.65,3.83,0
38.1,-0.307,-0.965,-3.71,3.84,0
38.1,-0.495,-0.842,-3.36,3.5,0
38.1,-0.352,-0.833,-2.89,3.03,0
38.1,-0.119,-0.749,-2.38,2.5,0
38.1,0.14,-0.591,-1.66,1.77,0
38.1,0.389,-0.497,-0.815,1.03,0
38.1,0.359,-0.419,-0.174,0.579,0
38.1,0.187,-0.393,0.3,0.528,0
38.2,-0.066,-0.343,0.595,0.69,0
38.2,-0.261,-0.312,0.92,1.01,0
38.2,-0.201,-0.277,1.58,1.62,0
38.2,-0.0435,-0.088,2.36,2.36,0
38.2,0.187,0.145,2.82,2.83,0
38.2,0.385,0.372,3.04,3.08,0
38.2,0.452,0.632,3.13,3.22,0
38.2,0.329,1.18,3.03,3.27,0
38.2,0.117,1.85,2.59,3.19,0
38.2,0.0823,2.4,1.98,3.12,0
38.3,0.206,2.74,1.25,3.02,0
38.3,0.791,2.72,0.585,2.9,0
38.3,1.7,2.49,0.949,3.16,0
38.3,2.81,2.03,2.66,4.36,0
38.3,3.74,1.45,4.88,6.32,0
38.3,4.04,0.847,7.02,8.14,0
38.3,3.7,0.0353,7.94,8.76,0
38.3,2.69,-0.896,6.89,7.46,0
38.3,1.48,-1.55,4.73,5.2,0
38.3,0.678,-1.85,2.61,3.27,0
38.4,0.262,-1.95,0.868,2.15,0
38.4,0.335,-1.77,-0.13,1.81,0
38.4,0.779,-1.49,-0.319,1.71,0
38.4,1.51,-1.19,-0.209,1.93,0
38.4,2.18,-0.923,-0.256,2.38,0
38.4,2.58,-0.708,-0.694,2.77,0
38.4,2.67,-0.498,-1.43,3.07,0
38.4,2.47,-0.348,-2.15,3.3,0
38.4,2.11,-0.236,-2.86,3.56,0
38.4,1.61,-0.269,-3.57,3.93,0
38.5,1.07,-0.377,-4.17,4.32,0
38.5,0.73,-0.482,-4.43,4.52,0
38.5,0.463,-0.546,-4.48,4.53,0
38.5,0.204,-0.599,-4.58,4.62,0
38.5,0.13,-0.659,-4.62,4.67,0
38.5,0.19,-0.629,-4.23,4.28,0
38.5,0.0676,-0.636,-3.66,3.72,0
38.5,-0.12,-0.789,-3.37,3.46,0
38.5,-0.354,-0.879,-3.34,3.47,0
38.5,-0.723,-0.828,-3.22,3.4,0
38.6,-1.07,-0.866,-2.95,3.26,0
38.6,-1.2,-0.874,-2.62,3.01,0
38.6,-1.21,-0.821,-2.32,2.74,0
38.6,-1.14,-0.625,-2.12,2.49,0
38.6,-1.07,-0.317,-1.98,2.27,0
38.6,-1.01,-0.0975,-1.72,2.0,0
38.6,-0.857,0.0526,-1.08,1.38,0
38.6,-0.706,0.224,-0.161,0.758,0
38.6,-0.66,0.453,0.653,1.03,0
38.6,-0.728,0.704,1.24,1.6,0
38.7,-0.953,0.934,1.58,2.07,0
38.7,-1.22,1.07,1.72,2.37,0
38.7,-1.41,1.15,1.84,2.59,0
38.7,-1.42,1.29,2.06,2.81,0
38.7,-1.31,1.53,2.57,3.26,0
38.7,-1.14,1.78,3.15,3.79,0
38.7,-0.945,1.95,3.78,4.35,0
38.7,-0.839,2.11,4.04,4.63,0
38.7,-1.14,2.2,3.33,4.15,0
38.7,-1.77,2.17,2.22,3.57,0
38.8,-2.14,2.14,1.53,3.39,0
38.8,-2.23,2.14,1.31,3.36,0
38.8,-1.83,2.01,1.94,3.33,0
38.8,-0.913,1.75,3.26,3.81,0
38.8,0.0173,1.45,4.46,4.69,0
38.8,0.84,1.12,5.5,5.67,0
38.8,1.15,0.873,5.91,6.08,0
38.8,0.55,0.534,4.82,4.88,0
38.8,-0.395,0.111,2.65,2.68,0
38.8,-1.28,-0.166,0.7,1.47,0
38.9,-1.83,-0.204,-0.759,1.99,0
38.9,-1.84,-0.138,-1.52,2.39,0
38.9,-1.51,-0.142,-1.58,2.19,0
38.9,-0.899,-0.227,-1.51,1.77,0
38.9,-0.183,-0.318,-1.4,1.45,0
38.9,0.455,-0.399,-1.14,1.29,0
38.9,0.863,-0.551,-0.754,1.27,0
38.9,0.964,-0.804,-0.317,1.29,0
38.9,0.953,-1.22,0.128,1.55,0
38.9,0.749,-1.58,0.181,1.76,0
39.0,0.412,-1.92,-0.197,1.97,0
39.0,0.015,-2.2,-0.98,2.41,0
39.0,-0.317,-2.39,-1.92,3.08,0
39.0,-0.469,-2.43,-2.67,3.64,0
39.0,-0.549,-2.47,-3.23,4.1,0
39.0,-0.526,-2.5,-3.54,4.37,0
39.0,-0.367,-2.32,-3.6,4.3,0
39.0,-0.321,-2.1,-3.46,4.06,0
39.0,-0.338,-2.01,-3.31,3.89,0
39.0,-0.355,-1.95,-3.47,3.99,0
39.1,-0.402,-1.78,-3.7,4.13,0
39.1,-0.453,-1.52,-3.9,4.22,0
39.1,-0.357,-1.26,-4.1,4.31,0
39.1,-0.294,-1.03,-4.05,4.19,0
39.1,-0.313,-0.864,-3.61,3.72,0
39.1,-0.239,-0.834,-2.79,2.92,0
39.1,-0.0388,-0.729,-1.96,2.09,0
39.1,0.169,-0.5,-1.29,1.4,0
39.1,0.564,-0.25,-0.511,0.801,0
39.1,0.799,0.0967,0.2,0.83,0
39.2,0.748,0.382,0.811,1.17,0
39.2,0.636,0.409,1.42,1.61,0
39.2,0.704,0.331,2.11,2.25,0
39.2,1.02,0.484,2.92,3.13,0
39.2,1.45,0.831,3.65,4.02,0
39.2,1.87,1.21,3.86,4.45,0
39.2,2.19,1.56,3.66,4.54,0
39.2,2.22,1.98,3.21,4.37,0
39.2,1.99,2.44,2.56,4.06,0
39.2,1.63,2.71,1.71,3.6,0
39.3,1.57,2.8,1.03,3.37,0
39.3,1.94,2.95,0.93,3.65,0
39.3,2.45,3.01,1.21,4.07,0
39.3,3.33,2.65,2.19,4.78,0
39.3,4.31,2.2,3.87,6.2,0
39.3,4.97,1.88,5.39,7.56,0
39.3,4.99,1.36,5.9,7.85,0
39.3,4.26,0.623,5.1,6.67,0
39.3,3.12,-0.196,3.51,4.7,0
39.3,2.05,-0.903,2.02,3.01,0
39.4,1.21,-1.37,0.783,1.99,0
39.4,0.659,-1.58,0.0698,1.72,0
39.4,0.308,-1.77,-0.349,1.83,0
39.4,0.169,-1.92,-0.589,2.01,0
39.4,0.204,-1.96,-0.816,2.14,0
39.4,0.389,-1.89,-1.21,2.27,0
39.4,0.652,-1.77,-1.72,2.55,0
39.4,0.813,-1.6,-2.38,2.98,0
39.4,0.842,-1.43,-3.1,3.51,0
39.4,0.906,-1.33,-3.7,4.03,0
39.5,0.879,-1.17,-4.03,4.28,0
39.5,0.646,-1.08,-4.26,4.44,0
39.5,0.313,-1.17,-4.3,4.47,0
39.5,-0.201,-1.39,-4.34,4.56,0
39.5,-0.736,-1.63,-4.35,4.7,0
39.5,-1.07,-1.76,-4.18,4.66,0
39.5,-1.16,-1.69,-3.86,4.37,0
39.5,-1.31,-1.51,-3.57,4.09,0
39.5,-1.47,-1.36,-3.46,4.0,0
39.6,-1.52,-1.27,-3.17,3.74,0
39.6,-1.45,-1.01,-2.87,3.37,0
39.6,-1.45,-0.664,-2.68,3.12,0
39.6,-1.55,-0.327,-2.55,3.0,0
39.6,-1.56,-0.101,-2.26,2.75,0
39.6,-1.24,0.116,-1.75,2.15,0
39.6,-0.712,0.469,-0.993,1.31,0
39.6,-0.378,0.951,-0.0666,1.03,0
39.6,-0.206,1.27,0.81,1.52,0
39.6,-0.232,1.4,1.56,2.1,0
39.7,-0.482,1.45,2.27,2.74,0
39.7,-0.682,1.53,2.89,3.34,0
39.7,-0.979,1.66,3.3,3.82,0
39.7,-1.25,1.75,3.55,4.15,0
39.7,-1.39,1.86,3.66,4.33,0
39.7,-1.37,2.07,3.67,4.43,0
39.7,-1.13,2.37,3.8,4.62,0
39.7,-0.947,2.69,3.94,4.86,0
39.7,-0.928,3.01,3.74,4.89,0
39.7,-1.1,3.17,3.01,4.51,0
39.8,-1.13,3.13,2.26,4.02,0
39.8,-0.856,3.02,1.95,3.7,0
39.8,-0.165,2.77,2.62,3.82,0
39.8,0.635,2.34,4.05,4.72,0
39.8,1.17,1.6,5.44,5.79,0
39.8,1.2,0.853,6.43,6.59,0
39.8,0.565,0.0706,6.27,6.3,0
39.8,-0.534,-0.682,4.63,4.71,0
39.8,-1.53,-1.22,2.37,3.07,0
39.8,-2.38,-1.52,0.157,2.82,0
39.9,-2.85,-1.56,-1.46,3.56,0
39.9,-2.88,-1.45,-2.38,4.01,0
39.9,-2.42,-1.37,-2.55,3.77,0
39.9,-1.67,-1.3,-2.16,3.02,0
39.9,-0.74,-1.18,-1.59,2.11,0
39.9,0.0447,-1.05,-1.03,1.48,0
39.9,0.47,-0.961,-0.645,1.25,0
39.9,0.542,-1.07,-0.196,1.21,0
39.9,0.331,-1.34,0.0471,1.38,0
39.9,-0.0598,-1.66,-0.198,1.67,0
40.0,-0.451,-1.88,-0.727,2.07,0
40.0,-0.763,-2.01,-1.38,2.55,0
40.0,-0.964,-2.03,-2.06,3.05,0
40.0,-1.02,-1.99,-2.53,3.37,0
40.0,-0.881,-1.93,-2.68,3.42,0
40.0,-0.706,-1.78,-2.77,3.37,0
40.0,-0.486,-1.61,-2.77,3.24,0
40.0,-0.325,-1.45,-2.72,3.1,0
40.0,-0.289,-1.32,-2.86,3.16,0
40.0,-0.454,-1.23,-3.02,3.29,0
40.1,-0.696,-1.22,-3.27,3.55,0
40.1,-0.88,-1.19,-3.54,3.84,0
40.1,-0.966,-1.03,-3.67,3.93,0
40.1,-0.942,-0.848,-3.59,3.81,0
40.1,-0.81,-0.679,-2.99,3.17,0
40.1,-0.548,-0.582,-2.07,2.22,0
40.1,-0.254,-0.47,-1.37,1.47,0
40.1,0.123,-0.275,-0.82,0.874,0
40.1,0.61,-0.114,-0.0553,0.623,0
40.1,0.717,0.0892,0.464,0.859,0
40.2,0.579,0.273,0.731,0.972,0
40.2,0.454,0.366,1.21,1.34,0
40.2,0.556,0.462,2.06,2.18,0
40.2,0.809,0.669,2.83,3.02,0
40.2,1.15,0.968,3.1,3.44,0
40.2,1.48,1.16,3.05,3.59,0
40.2,1.84,1.32,2.99,3.75,0
40.2,1.83,1.63,2.81,3.73,0
40.2,1.48,2.03,2.26,3.37,0
40.2,1.27,2.33,1.51,3.05,0
40.3,1.48,2.62,0.873,3.13,0
40.3,2.1,2.96,0.607,3.68,0
40.3,3.18,3.29,1.03,4.69,0
40.3,4.47,3.35,2.35,6.05,0
40.3,5.45,3.02,4.01,7.41,0
40.3,5.78,2.34,5.46,8.29,0
40.3,5.37,1.4,6.19,8.31,0
40.3,4.26,0.442,5.62,7.07,0
40.3,2.94,-0.456,4.21,5.15,0
40.3,1.92,-1.19,2.77,3.58,0
40.4,1.08,-1.65,1.54,2.5,0
40.4,0.441,-2.05,0.574,2.17,0
40.4,0.0662,-2.38,-0.193,2.39,0
40.4,-0.239,-2.66,-0.907,2.82,0
40.4,-0.425,-2.82,-1.59,3.26,0
40.4,-0.471,-2.85,-2.26,3.67,0
40.4,-0.347,-2.77,-2.92,4.05,0
40.4,-0.169,-2.57,-3.64,4.46,0
40.4,-0.103,-2.37,-4.31,4.92,0
40.4,-0.248,-2.17,-4.86,5.33,0
40.5,-0.44,-2.03,-5.22,5.62,0
40.5,-0.547,-1.97,-5.4,5.78,0
40.5,-0.632,-1.8,-5.22,5.56,0
40.5,-0.85,-1.65,-4.78,5.13,0
40.5,-1.13,-1.66,-4.41,4.85,0
40.5,-1.59,-1.71,-4.03,4.66,0
40.5,-1.77,-1.72,-3.56,4.34,0
40.5,-1.67,-1.58,-3.03,3.8,0
40.5,-1.48,-1.29,-2.66,3.3,0
40.5,-1.33,-0.915,-2.41,2.9,0
40.6,-1.2,-0.545,-2.14,2.51,0
40.6,-1.09,-0.241,-1.93,2.23,0
40.6,-1.09,-0.00637,-1.65,1.98,0
40.6,-1.09,0.143,-1.31,1.71,0
40.6,-0.96,0.36,-0.887,1.36,0
40.6,-0.691,0.602,-0.187,0.936,0
40.6,-0.465,0.769,0.55,1.05,0
40.6,-0.279,0.928,1.32,1.64,0
40.6,-0.194,1.1,2.1,2.37,0
40.6,-0.339,1.26,2.33,2.67,0
40.7,-0.725,1.41,2.12,2.65,0
40.7,-1.19,1.46,1.82,2.62,0
40.7,-1.58,1.43,1.73,2.74,0
40.7,-1.8,1.55,1.82,3.0,0
40.7,-1.72,1.83,1.94,3.17,0
40.7,-1.36,2.13,2.06,3.26,0
40.7,-0.837,2.44,2.38,3.51,0
40.7,-0.261,2.76,2.78,3.93,0
