Time (s),Linear Acceleration x (m/s^2),Linear Acceleration y (m/s^2),Linear Acceleration z (m/s^2),Absolute acceleration (m/s^2),label
60.8,2.05,11.8,2.01,12.1,1
60.8,2.39,12.1,4.39,13.1,1
60.8,2.87,11.8,6.27,13.6,1
60.8,2.5,9.45,6.97,12.0,1
60.9,0.442,6.47,7.24,9.72,1
60.9,-0.72,5.3,6.28,8.24,1
60.9,-1.17,5.08,0.323,5.23,1
60.9,-0.675,5.84,-5.29,7.91,1
60.9,0.11,6.58,-6.66,9.36,1
60.9,0.578,6.52,-6.55,9.26,1
60.9,1.57,4.61,-5.61,7.43,1
60.9,-2.13,-8.5,-4.04,9.65,1
60.9,-11.9,-33.0,-0.677,35.1,1
60.9,-10.7,-47.2,-1.97,48.5,1
61.0,3.5,-45.0,6.88,45.6,1
61.0,11.3,-31.6,17.6,37.9,1
61.0,6.91,-14.7,7.23,17.7,1
61.0,-1.67,-8.53,-4.37,9.72,1
61.0,-4.65,-3.17,-9.3,10.9,1
61.0,-6.42,1.11,-11.2,12.9,1
61.0,-6.96,4.71,-10.4,13.4,1
61.0,-7.24,7.13,-8.76,13.4,1
61.0,-6.19,8.77,-6.27,12.4,1
61.0,-5.18,10.0,-3.37,11.8,1
61.1,-4.77,10.5,-0.121,11.6,1
61.1,-4.45,9.59,2.46,10.9,1
61.1,-2.64,6.31,2.5,7.29,1
61.1,-1.07,2.58,0.506,2.84,1
61.1,1.72,-0.257,0.541,1.82,1
61.1,4.8,-2.97,1.16,5.77,1
61.1,6.76,-3.93,2.4,8.18,1
61.1,6.53,-2.51,3.86,7.99,1
61.1,4.84,-0.273,4.39,6.54,1
61.1,3.13,1.7,4.06,5.4,1
61.2,2.21,3.41,2.73,4.9,1
61.2,1.34,4.06,2.02,4.73,1
61.2,0.567,4.14,1.49,4.43,1
61.2,-0.327,3.49,0.95,3.63,1
61.2,-1.1,2.67,0.703,2.97,1
61.2,-1.47,1.89,0.457,2.44,1
61.2,-1.86,0.713,0.389,2.03,1
61.2,-2.13,-0.679,0.553,2.3,1
61.2,-2.23,-2.07,0.758,3.13,1
61.2,-2.21,-3.32,0.903,4.09,1
61.3,-1.87,-4.04,0.791,4.52,1
61.3,-0.997,-3.89,0.615,4.07,1
61.3,0.252,-2.82,0.571,2.89,1
61.3,1.16,-1.96,0.374,2.31,1
61.3,1.72,-1.72,0.0457,2.44,1
61.3,2.13,-1.47,-0.247,2.6,1
61.3,2.46,-0.823,-0.545,2.65,1
61.3,2.53,-0.129,-0.583,2.6,1
61.3,2.26,0.534,-0.455,2.37,1
61.3,1.77,1.17,-0.435,2.17,1
61.4,1.23,1.68,-0.48,2.14,1
61.4,0.626,1.96,-0.513,2.12,1
61.4,-0.0703,1.88,-0.526,1.95,1
61.4,-0.65,1.49,-0.523,1.71,1
61.4,-1.08,0.898,-0.405,1.46,1
61.4,-1.4,0.357,-0.43,1.5,1
61.4,-1.5,0.0426,-0.394,1.55,1
61.4,-1.4,-0.0543,-0.228,1.42,1
61.4,-1.16,-0.0253,-0.0468,1.16,1
61.4,-0.794,0.0402,0.11,0.803,1
61.5,-0.411,0.0825,0.153,0.447,1
61.5,-0.114,0.028,0.058,0.131,1
61.5,0.218,-0.093,-0.164,0.288,1
61.5,0.542,-0.173,-0.43,0.713,1
61.5,0.764,-0.313,-0.704,1.08,1
61.5,0.804,-0.427,-0.941,1.31,1
61.5,0.752,-0.341,-1.0,1.3,1
61.5,0.653,-0.177,-0.977,1.19,1
61.5,0.514,0.0335,-0.852,0.996,1
61.5,0.307,0.165,-0.698,0.78,1
61.6,0.0251,0.234,-0.506,0.557,1
61.6,-0.336,0.211,-0.296,0.495,1
61.6,-0.69,0.186,-0.0507,0.717,1
61.6,-1.04,0.0713,0.325,1.09,1
61.6,-1.37,-0.232,0.792,1.59,1
61.6,-1.43,-0.553,1.18,1.93,1
61.6,-1.17,-0.527,1.47,1.95,1
61.6,-0.839,-0.311,1.64,1.87,1
61.6,-0.622,-0.188,1.7,1.82,1
61.6,-0.465,-0.183,1.64,1.71,1
61.7,-0.378,-0.24,1.53,1.59,1
61.7,-0.139,-0.228,1.33,1.36,1
61.7,0.245,-0.236,0.98,1.04,1
61.7,0.746,-0.31,0.655,1.04,1
61.7,1.04,-0.404,0.638,1.28,1
61.7,1.14,-0.561,0.786,1.5,1
61.7,1.3,-0.626,0.905,1.7,1
61.7,1.53,-0.552,1.17,2.0,1
61.7,1.56,-0.441,1.39,2.13,1
61.7,1.51,-0.232,1.36,2.04,1
61.8,1.35,-0.0128,1.2,1.81,1
61.8,1.07,0.233,1.13,1.57,1
61.8,0.64,0.399,1.35,1.54,1
61.8,0.19,0.476,1.73,1.81,1
61.8,-0.142,0.558,1.76,1.85,1
61.8,-0.283,0.604,1.23,1.4,1
61.8,-0.204,0.641,0.574,0.884,1
61.8,0.00445,0.687,0.202,0.716,1
61.8,0.0457,0.675,0.132,0.689,1
61.8,-0.171,0.653,0.238,0.715,1
61.9,-0.354,0.786,-0.181,0.88,1
61.9,-0.767,0.643,-0.0304,1.0,1
61.9,-1.12,0.569,0.256,1.28,1
61.9,-1.09,0.661,-0.419,1.35,1
61.9,-1.05,0.805,-0.623,1.46,1
61.9,-0.974,0.943,0.00714,1.36,1
61.9,-0.985,0.951,0.726,1.55,1
61.9,-0.746,0.941,1.17,1.67,1
61.9,-0.355,0.922,0.727,1.23,1
61.9,-0.0065,1.0,-0.253,1.03,1
62.0,0.171,1.13,-0.741,1.36,1
62.0,0.0745,1.23,-0.478,1.32,1
62.0,-0.0833,1.35,0.102,1.36,1
62.0,-0.092,1.53,0.391,1.58,1
62.0,-0.166,1.65,0.704,1.8,1
62.0,0.0159,1.7,0.822,1.88,1
62.0,0.383,1.81,0.0239,1.85,1
62.0,0.502,1.92,-0.886,2.17,1
62.0,0.213,1.82,-0.963,2.07,1
62.0,-0.092,1.55,-0.472,1.62,1
62.1,-0.292,1.18,-0.152,1.23,1
62.1,-0.373,0.714,-0.254,0.845,1
62.1,-0.439,0.234,-0.434,0.66,1
62.1,-0.674,-0.381,-0.588,0.972,1
62.1,-0.661,-0.834,-0.858,1.37,1
62.1,-0.443,-1.27,-0.904,1.62,1
62.1,-0.318,-1.86,-0.5,1.95,1
62.1,-0.244,-2.69,-0.275,2.72,1
62.1,-0.172,-3.61,-0.343,3.63,1
62.1,-0.37,-4.64,-0.307,4.66,1
62.2,-0.638,-5.76,-0.321,5.81,1
62.2,-0.875,-6.83,-0.669,6.92,1
62.2,-1.22,-7.74,-0.849,7.88,1
62.2,-1.39,-8.3,-0.682,8.44,1
62.2,-1.78,-8.41,-0.646,8.62,1
62.2,-2.31,-8.39,-0.818,8.74,1
62.2,-2.65,-8.47,-1.71,9.04,1
62.2,-2.8,-8.58,-2.86,9.47,1
62.2,-2.7,-8.68,-3.47,9.73,1
62.2,-2.21,-8.54,-3.9,9.64,1
62.3,-1.42,-8.02,-3.84,9.01,1
62.3,-0.901,-7.32,-3.07,7.99,1
62.3,-0.624,-6.44,-1.9,6.74,1
62.3,-0.504,-5.47,-0.295,5.5,1
62.3,-0.825,-4.64,1.37,4.91,1
62.3,-0.403,-3.29,2.65,4.25,1
62.3,0.253,-1.87,3.88,4.31,1
62.3,1.21,0.277,4.0,4.19,1
62.3,2.22,2.62,3.13,4.65,1
62.3,2.86,4.49,2.11,5.73,1
62.4,3.22,6.23,1.25,7.12,1
62.4,3.34,7.51,0.702,8.25,1
62.4,3.3,8.77,0.332,9.38,1
62.4,3.27,9.75,0.691,10.3,1
62.4,3.04,10.7,1.73,11.3,1
62.4,2.56,11.9,3.92,12.7,1
62.4,1.47,12.8,6.61,14.4,1
62.4,0.201,13.2,8.55,15.7,1
62.4,-1.33,12.8,7.55,15.0,1
62.4,-2.04,11.4,4.43,12.4,1
62.5,-1.84,9.71,0.461,9.89,1
62.5,-0.706,9.12,-2.38,9.45,1
62.5,0.614,9.25,-3.89,10.1,1
62.5,1.92,9.53,-3.44,10.3,1
62.5,2.5,9.61,-2.83,10.3,1
62.5,2.7,9.96,-2.46,10.6,1
62.5,2.75,10.1,-1.96,10.7,1
62.5,2.73,9.85,-1.25,10.3,1
62.5,2.53,8.96,-0.856,9.35,1
62.5,1.95,7.44,-0.634,7.72,1
62.6,1.32,6.02,-0.347,6.18,1
62.6,0.981,4.44,-0.45,4.57,1
62.6,1.04,1.82,-0.715,2.21,1
62.6,0.708,-2.92,-1.24,3.25,1
62.6,0.327,-7.92,-1.6,8.08,1
62.6,-0.913,-16.2,1.05,16.2,1
62.6,-5.4,-33.9,9.9,35.7,1
62.6,-1.7,-48.6,21.7,53.2,1
62.6,6.83,-39.5,13.4,42.3,1
62.6,5.46,-22.5,-2.85,23.3,1
62.7,-2.04,-12.0,-9.8,15.6,1
62.7,-8.5,-4.19,-11.8,15.1,1
62.7,-10.3,2.54,-8.15,13.4,1
62.7,-12.1,6.36,-6.93,15.4,1
62.7,-11.4,9.58,-6.17,16.1,1
62.7,-7.82,11.3,-5.38,14.7,1
62.7,-5.21,11.4,-4.76,13.4,1
62.7,-4.21,11.0,-4.79,12.7,1
62.7,-3.35,9.09,-3.49,10.3,1
62.7,-2.46,5.86,-0.768,6.4,1
62.8,-0.0903,1.07,-0.0154,1.08,1
62.8,2.74,-3.27,-0.204,4.27,1
62.8,5.19,-5.4,0.355,7.5,1
62.8,7.7,-5.54,2.0,9.69,1
62.8,8.9,-3.71,3.79,10.4,1
62.8,7.83,-0.0379,4.75,9.16,1
62.8,5.91,3.05,4.33,7.93,1
62.8,3.84,4.51,3.02,6.65,1
62.8,2.23,4.97,1.29,5.6,1
62.8,0.706,4.63,0.526,4.71,1
62.9,-0.971,3.64,1.14,3.93,1
62.9,-2.77,1.1,2.86,4.13,1
62.9,-4.72,-2.25,4.53,6.92,1
62.9,-5.76,-4.65,5.45,9.19,1
62.9,-4.45,-4.8,4.64,8.02,1
62.9,-2.45,-3.88,2.64,5.29,1
62.9,-1.01,-2.98,1.38,3.44,1
62.9,-0.14,-1.87,0.795,2.04,1
62.9,0.346,-0.513,0.0826,0.625,1
62.9,0.546,0.446,-0.605,0.929,1
63.0,0.799,0.926,-1.14,1.67,1
63.0,1.13,0.823,-1.52,2.06,1
63.0,1.42,0.428,-1.49,2.1,1
63.0,1.7,0.203,-0.906,1.94,1
63.0,1.7,0.228,-0.119,1.72,1
63.0,1.36,0.445,0.655,1.58,1
63.0,0.645,0.705,1.2,1.54,1
63.0,-0.173,0.977,1.13,1.5,1
63.0,-0.639,1.21,0.624,1.5,1
63.0,-0.86,1.01,0.198,1.34,1
63.1,-0.983,0.412,0.0503,1.07,1
63.1,-0.954,-0.276,0.122,1.0,1
63.1,-0.766,-0.706,0.375,1.11,1
63.1,-0.525,-0.237,0.649,0.868,1
63.1,-0.821,-0.196,0.624,1.05,1
63.1,-0.964,-0.254,0.509,1.12,1
63.1,-0.771,-0.362,0.794,1.17,1
63.1,-0.607,-0.419,1.09,1.31,1
63.1,-0.56,-0.519,0.984,1.25,1
63.1,-0.498,-0.538,0.823,1.1,1
63.2,-0.342,-0.382,0.818,0.965,1
63.2,-0.157,-0.307,0.788,0.86,1
63.2,0.131,-0.277,0.679,0.745,1
63.2,0.483,-0.193,0.537,0.748,1
63.2,0.713,-0.0612,0.34,0.793,1
63.2,0.718,-0.0809,0.168,0.742,1
63.2,0.702,-0.0897,0.11,0.716,1
63.2,0.656,0.0101,0.163,0.676,1
63.2,0.477,0.134,0.2,0.534,1
63.2,0.227,0.192,0.00734,0.297,1
63.3,-0.16,0.00485,-0.309,0.348,1
63.3,-0.584,-0.32,-0.375,0.764,1
63.3,-0.851,-0.465,-0.233,0.997,1
63.3,-0.844,-0.26,0.138,0.894,1
63.3,-0.627,-0.121,0.434,0.772,1
63.3,-0.331,-0.0227,0.478,0.582,1
63.3,-0.0748,-0.0357,0.582,0.588,1
63.3,0.0928,-0.158,0.603,0.631,1
63.3,0.168,-0.192,0.458,0.524,1
63.3,0.305,-0.0962,0.251,0.406,1
63.4,0.325,0.0739,0.0178,0.334,1
63.4,0.227,0.138,-0.161,0.311,1
63.4,0.114,0.24,-0.281,0.387,1
63.4,-0.00491,0.306,-0.382,0.489,1
63.4,-0.073,0.342,-0.519,0.626,1
63.4,-0.228,0.391,-0.511,0.683,1
63.4,-0.338,0.287,-0.57,0.723,1
63.4,-0.242,0.201,-0.63,0.705,1
63.4,-0.247,0.0955,-0.742,0.788,1
63.4,-0.318,-0.0307,-0.853,0.91,1
63.5,-0.126,0.159,-0.667,0.697,1
63.5,-0.183,0.304,-0.618,0.713,1
63.5,-0.551,0.107,-0.777,0.959,1
63.5,-0.665,0.0304,-0.754,1.01,1
63.5,-0.74,-0.0446,-0.678,1.0,1
63.5,-0.873,-0.187,-0.673,1.12,1
63.5,-0.803,-0.0426,-0.428,0.911,1
63.5,-0.926,0.18,-0.239,0.973,1
63.5,-1.19,0.363,-0.183,1.26,1
63.5,-1.29,0.598,-0.101,1.43,1
63.6,-1.25,0.763,0.0522,1.47,1
63.6,-1.48,0.692,0.103,1.64,1
63.6,-1.05,0.75,0.344,1.33,1
63.6,-0.737,0.775,0.592,1.22,1
63.6,-0.743,0.44,0.46,0.978,1
63.6,-0.703,0.13,0.202,0.743,1
63.6,-0.396,0.316,0.0953,0.516,1
63.6,-0.518,-0.597,0.269,0.835,1
63.6,-0.417,-0.839,-0.249,0.97,1
63.6,0.211,-0.265,-0.3,0.453,1
63.7,0.343,0.0895,-0.201,0.408,1
63.7,0.0101,0.231,-0.295,0.375,1
63.7,-0.308,0.195,-0.774,0.856,1
63.7,-0.19,0.0291,-0.706,0.731,1
63.7,0.154,-0.165,-0.431,0.487,1
63.7,0.513,-0.194,-0.171,0.574,1
63.7,0.842,0.152,-0.0877,0.861,1
63.7,1.0,0.609,-0.0686,1.18,1
63.7,0.711,0.687,-0.0676,0.991,1
63.7,0.306,0.406,-0.135,0.526,1
63.8,0.263,0.701,-0.251,0.789,1
63.8,0.207,1.08,-0.0521,1.1,1
63.8,0.0736,1.21,0.243,1.24,1
63.8,0.041,1.56,0.217,1.57,1
63.8,-0.247,1.6,0.077,1.62,1
63.8,-0.495,0.939,-0.0187,1.06,1
63.8,-0.215,0.322,-0.128,0.408,1
63.8,0.319,0.524,-0.274,0.672,1
63.8,0.523,0.785,-0.519,1.08,1
63.8,0.371,0.726,-0.617,1.02,1
63.9,0.228,0.337,-0.519,0.66,1
63.9,0.336,0.097,-0.403,0.534,1
63.9,0.644,0.132,-0.312,0.728,1
63.9,0.817,0.146,-0.00098,0.829,1
63.9,0.996,0.677,0.158,1.21,1
63.9,0.842,1.2,0.268,1.49,1
63.9,0.278,1.15,0.133,1.19,1
63.9,-0.0292,0.916,-0.0228,0.917,1
63.9,0.0246,0.838,0.00257,0.839,1
63.9,0.201,0.662,0.202,0.721,1
64.0,0.202,0.482,0.232,0.572,1
64.0,0.0348,0.36,0.126,0.383,1
64.0,-0.159,0.133,0.12,0.239,1
64.0,-0.488,-0.446,0.151,0.678,1
64.0,-0.577,-0.983,0.416,1.21,1
64.0,-0.544,-1.49,0.705,1.74,1
64.0,-0.472,-1.78,1.13,2.16,1
64.0,-0.398,-1.47,1.02,1.83,1
64.0,-0.423,-1.26,0.767,1.53,1
64.0,-0.404,-1.14,0.705,1.4,1
64.1,-0.189,-0.664,0.681,0.97,1
64.1,0.0158,0.035,0.641,0.642,1
64.1,0.108,0.422,0.481,0.649,1
64.1,0.338,0.847,0.452,1.02,1
64.1,0.456,1.17,0.243,1.28,1
64.1,0.691,1.38,-0.204,1.56,1
64.1,0.581,1.23,-0.401,1.42,1
64.1,0.326,0.81,-0.467,0.99,1
64.1,0.0114,0.495,-0.268,0.563,1
64.1,-0.217,0.424,0.12,0.492,1
64.2,-0.684,-0.157,0.36,0.788,1
64.2,-0.902,-1.37,0.364,1.68,1
64.2,-0.476,-2.52,0.0216,2.56,1
64.2,0.633,-2.46,-0.227,2.55,1
64.2,1.13,-0.776,-0.783,1.58,1
64.2,0.907,0.257,-0.948,1.34,1
64.2,-0.863,-1.12,0.166,1.42,1
64.2,-1.86,-1.4,0.864,2.48,1
64.2,-1.78,-0.656,0.668,2.01,1
64.2,-2.05,-0.944,0.821,2.41,1
64.3,-1.98,-0.916,0.399,2.22,1
64.3,-1.55,-0.524,0.125,1.64,1
64.3,-1.38,-0.512,-0.0933,1.48,1
64.3,-1.48,-0.883,-0.0287,1.72,1
64.3,-0.811,-0.883,-0.138,1.21,1
64.3,1.34,-3.19,-3.2,4.71,1
64.3,1.82,-5.76,-5.29,8.03,1
64.3,3.02,-0.351,-8.1,8.66,1
64.3,3.25,3.72,-4.23,6.51,1
64.3,1.63,0.637,4.83,5.14,1
64.4,-1.21,-3.66,5.99,7.13,1
64.4,-0.898,-0.328,3.48,3.61,1
64.4,-0.466,0.785,2.24,2.42,1
64.4,-0.174,0.495,0.236,0.575,1
64.4,1.81,3.98,-1.03,4.49,1
64.4,3.94,9.08,0.478,9.9,1
64.4,5.68,10.0,3.96,12.2,1
64.4,4.25,8.55,1.07,9.61,1
64.4,0.177,2.32,-2.46,3.38,1
64.4,-3.37,-5.94,2.16,7.16,1
64.5,-6.57,-10.7,2.15,12.7,1
64.5,-6.63,-8.09,-2.29,10.7,1
64.5,-5.04,-5.31,-3.3,8.02,1
64.5,-0.447,-0.516,-3.25,3.32,1
64.5,3.53,3.29,-0.747,4.89,1
64.5,3.94,3.04,-0.412,4.99,1
64.5,2.68,1.61,-2.53,4.02,1
64.5,0.574,-0.327,-2.51,2.6,1
64.5,-0.493,-0.646,-1.5,1.71,1
64.5,-0.966,-0.133,-0.957,1.37,1
64.6,-1.42,-0.257,0.468,1.52,1
64.6,-1.53,-0.664,1.56,2.28,1
64.6,-1.01,-0.016,1.85,2.1,1
64.6,-0.581,0.524,1.93,2.09,1
64.6,-0.264,0.709,1.9,2.04,1
64.6,-0.156,0.55,1.8,1.88,1
64.6,-0.123,0.387,1.45,1.51,1
64.6,-0.293,0.161,1.03,1.09,1
64.6,-0.395,0.267,0.579,0.75,1
64.6,-0.542,0.291,0.219,0.653,1
64.7,-0.683,0.484,0.0998,0.843,1
64.7,-0.862,0.409,-0.296,0.999,1
64.7,-0.628,1.23,-1.19,1.82,1
64.7,-0.62,4.03,-2.35,4.71,1
64.7,-1.87,4.73,-3.05,5.93,1
64.7,-3.02,1.74,-3.65,5.05,1
64.7,-3.29,0.542,-4.12,5.3,1
64.7,-2.95,-0.944,-3.29,4.52,1
64.7,-3.22,-4.05,-1.59,5.41,1
64.7,-3.35,-5.77,-0.0138,6.67,1
64.8,-2.7,-6.17,0.42,6.75,1
0.00439,0.678,0.553,-1.37,1.62,1
0.0144,-0.246,0.845,-2.03,2.21,1
0.0244,-1.28,0.861,-1.75,2.34,1
0.0344,-2.31,0.987,-1.22,2.8,1
0.0444,-2.9,0.94,-1.16,3.26,1
0.0545,-1.94,0.959,-1.31,2.53,1
0.0645,-0.761,0.833,-1.55,1.92,1
0.0745,2.17,-0.642,-3.1,3.84,1
0.0845,5.2,-1.97,-3.34,6.49,1
0.0945,1.66,2.26,2.77,3.94,1
0.105,1.19,2.59,0.221,2.85,1
0.115,3.7,-1.58,-2.27,4.62,1
0.125,3.59,-2.29,1.63,4.56,1
0.135,3.9,-3.51,0.113,5.25,1
0.145,2.39,-3.41,-1.78,4.53,1
0.155,1.88,-3.72,-3.77,5.62,1
0.165,1.03,-2.03,-1.97,3.01,1
0.175,1.04,-0.594,-0.215,1.22,1
0.185,2.31,-1.67,-2.81,4.0,1
0.195,2.03,-4.49,-5.95,7.73,1
0.205,-0.0264,-7.85,-4.32,8.96,1
0.215,-1.59,-6.01,1.03,6.3,1
0.225,-3.01,-5.21,-0.16,6.02,1
0.235,-1.28,-3.26,-0.518,3.53,1
0.245,1.71,-1.18,0.816,2.23,1
0.255,3.27,-1.67,1.99,4.17,1
0.265,3.3,-1.63,-2.31,4.34,1
0.275,3.99,-0.609,-5.11,6.51,1
0.285,3.55,-0.362,-5.91,6.9,1
0.295,2.81,-0.949,-4.8,5.64,1
0.305,3.05,-1.06,-4.47,5.51,1
0.315,3.15,-0.645,-5.64,6.5,1
0.325,2.86,0.21,-6.17,6.81,1
0.335,2.87,1.19,-6.02,6.77,1
0.345,2.87,1.7,-4.93,5.95,1
0.355,2.92,1.38,-2.29,3.96,1
0.365,1.59,-0.231,-0.492,1.68,1
0.375,-0.696,-1.94,-0.487,2.12,1
0.385,-3.35,-3.14,-2.47,5.22,1
0.395,-5.33,-3.59,-4.57,7.89,1
0.405,-4.94,-3.32,-5.19,7.9,1
0.415,-4.83,-4.03,-5.02,8.05,1
0.425,-4.2,-4.7,-3.12,7.04,1
0.435,-2.88,-4.15,0.764,5.11,1
0.445,-1.84,-4.18,4.52,6.42,1
0.455,-0.94,-4.23,6.4,7.72,1
0.465,-1.03,-3.45,7.64,8.44,1
0.475,-1.34,-3.2,7.36,8.14,1
0.485,-1.24,-3.27,7.49,8.27,1
0.495,-0.778,-2.43,7.39,7.82,1
0.505,0.456,-1.04,6.24,6.34,1
0.515,1.51,-0.111,5.4,5.61,1
0.525,1.53,0.426,5.01,5.26,1
0.535,0.966,0.219,4.5,4.61,1
0.545,1.29,-0.222,4.89,5.06,1
0.555,2.67,-0.346,6.11,6.68,1
0.565,4.57,0.2,6.59,8.03,1
0.575,6.75,1.52,6.32,9.37,1
0.585,8.0,2.77,5.19,9.92,1
0.595,7.93,3.34,3.55,9.31,1
0.605,7.21,3.31,2.0,8.19,1
0.615,6.45,3.15,1.01,7.25,1
0.625,5.92,2.99,0.431,6.64,1
0.635,5.76,3.23,0.193,6.61,1
0.645,5.8,3.81,-0.316,6.95,1
0.655,5.93,3.4,-1.39,6.98,1
0.665,5.41,2.9,-2.65,6.68,1
0.675,4.13,2.73,-3.53,6.08,1
0.685,2.9,2.96,-3.94,5.72,1
0.695,2.0,2.97,-3.8,5.22,1
0.705,1.14,2.73,-2.77,4.05,1
0.715,0.548,2.58,-1.44,3.01,1
0.725,0.237,2.72,-0.47,2.77,1
0.735,0.535,2.62,0.378,2.7,1
0.745,0.76,1.88,0.438,2.07,1
0.755,0.303,1.56,-0.409,1.64,1
0.765,-0.17,1.71,-1.31,2.17,1
0.775,-0.251,1.84,-1.15,2.19,1
0.785,0.0168,1.63,0.172,1.64,1
0.795,0.814,1.22,1.54,2.13,1
0.805,0.896,1.24,1.63,2.23,1
0.815,0.283,1.11,0.535,1.26,1
0.825,-0.589,0.689,-0.845,1.24,1
0.835,-1.45,0.221,-2.2,2.64,1
0.845,-1.15,0.38,-2.61,2.88,1
0.855,-0.415,1.16,-1.72,2.11,1
0.865,0.392,1.72,-1.44,2.27,1
0.875,0.793,1.27,-1.33,2.0,1
0.885,0.153,0.123,-1.49,1.5,1
0.895,-0.777,-0.182,-1.32,1.55,1
0.906,-1.73,-0.166,-0.62,1.85,1
0.916,-2.02,-1.4,0.602,2.53,1
0.926,0.57,-0.325,0.552,0.858,1
0.936,-0.504,1.64,-0.221,1.73,1
0.946,-0.983,1.95,-1.42,2.6,1
0.956,0.649,1.7,-1.29,2.23,1
0.966,0.151,2.5,-0.17,2.51,1
0.976,2.52,2.75,1.24,3.93,1
0.986,2.32,1.11,1.5,2.97,1
0.996,0.0845,-2.1,1.28,2.46,1
1.01,0.293,-2.36,0.576,2.45,1
1.02,-0.276,-0.515,-0.469,0.749,1
1.03,-1.86,-0.509,-0.896,2.13,1
1.04,-2.08,-1.2,0.656,2.49,1
1.05,-1.43,-1.4,2.59,3.27,1
6.06,0.349,1.42,-2.26,2.69,1
6.07,0.634,-0.676,-2.16,2.35,1
6.08,1.01,-2.28,-2.04,3.22,1
6.09,1.45,-3.51,-1.86,4.23,1
6.1,1.76,-4.43,-1.61,5.03,1
6.11,1.86,-4.86,-1.34,5.37,1
6.12,1.71,-4.34,-0.988,4.77,1
6.13,1.17,-2.56,-0.14,2.82,1
6.14,0.439,-0.791,0.934,1.3,1
6.15,-0.254,-0.149,1.66,1.68,1
6.16,-0.858,0.233,1.74,1.96,1
6.17,-1.29,0.74,1.33,2.0,1
6.18,-1.61,1.03,0.8,2.07,1
6.19,-1.77,0.966,0.32,2.04,1
6.2,-1.34,0.796,-0.176,1.57,1
6.21,-0.615,0.598,-0.523,1.0,1
6.22,-0.14,0.318,-0.66,0.745,1
6.23,0.251,0.0489,-0.769,0.81,1
6.24,0.63,-0.0739,-0.785,1.01,1
6.25,0.845,-0.0683,-0.598,1.04,1
6.26,0.862,0.039,-0.25,0.898,1
6.27,0.752,0.234,0.129,0.798,1
6.28,0.437,0.43,0.454,0.763,1
6.29,0.0417,0.498,0.667,0.834,1
6.3,-0.218,0.411,0.675,0.82,1
6.31,-0.361,0.196,0.5,0.647,1
6.32,-0.333,-0.0173,0.121,0.355,1
6.33,-0.186,-0.165,-0.23,0.339,1
6.34,-0.0314,-0.201,-0.342,0.398,1
6.35,0.208,-0.147,-0.197,0.322,1
6.36,0.417,-0.0981,-0.0179,0.429,1
6.37,0.534,-0.0757,0.0785,0.545,1
6.38,0.49,-0.0465,0.0955,0.501,1
6.39,0.382,-0.0639,0.145,0.414,1
6.4,0.233,-0.0638,0.169,0.295,1
6.41,0.063,-0.0201,0.195,0.206,1
6.42,-0.0511,0.0877,0.177,0.204,1
6.43,-0.126,0.226,0.176,0.313,1
6.44,-0.234,0.289,0.137,0.396,1
6.45,-0.315,0.317,0.0449,0.45,1
6.46,-0.379,0.326,-0.0936,0.508,1
6.47,-0.36,0.249,-0.218,0.489,1
6.48,-0.304,0.103,-0.23,0.395,1
6.49,-0.225,-0.00501,-0.139,0.265,1
6.5,-0.18,-0.000953,-0.00227,0.18,1
6.51,-0.17,0.0462,0.107,0.206,1
6.52,-0.232,0.0807,0.227,0.335,1
6.53,-0.278,0.119,0.322,0.442,1
6.54,-0.348,0.143,0.403,0.552,1
6.55,-0.404,0.147,0.466,0.634,1
6.56,-0.453,0.109,0.482,0.67,1
6.57,-0.406,0.145,0.426,0.606,1
6.58,-0.328,0.228,0.372,0.546,1
6.59,-0.18,0.251,0.428,0.528,1
6.6,-0.00977,0.222,0.475,0.524,1
6.61,0.143,0.161,0.415,0.468,1
6.62,0.195,0.12,0.214,0.313,1
6.63,0.17,0.0626,0.00198,0.181,1
6.64,0.122,0.031,-0.212,0.247,1
6.65,0.0449,0.0271,-0.42,0.423,1
6.66,-0.02,0.00218,-0.578,0.578,1
6.67,-0.0819,0.0355,-0.626,0.632,1
6.68,-0.122,0.0891,-0.595,0.613,1
6.69,-0.145,0.149,-0.466,0.51,1
6.7,-0.165,0.232,-0.34,0.443,1
6.71,-0.133,0.35,-0.269,0.461,1
6.72,-0.0635,0.408,-0.212,0.464,1
6.73,0.0364,0.421,-0.217,0.475,1
6.74,0.13,0.38,-0.232,0.464,1
6.75,0.251,0.381,-0.212,0.503,1
6.76,0.351,0.341,-0.216,0.535,1
6.77,0.372,0.383,-0.174,0.562,1
6.78,0.438,0.455,-0.128,0.645,1
6.79,0.502,0.512,-0.261,0.763,1
6.8,0.621,0.51,-0.486,0.939,1
6.81,0.719,0.368,-0.759,1.11,1
6.82,0.818,-0.0159,-0.885,1.2,1
6.83,0.925,-0.321,-0.824,1.28,1
6.84,1.0,-0.368,-0.757,1.31,1
6.85,1.09,-0.197,-0.805,1.37,1
6.86,1.12,0.131,-0.875,1.43,1
6.87,1.01,0.533,-0.421,1.21,1
6.88,0.899,0.966,0.144,1.33,1
6.89,0.764,1.29,0.265,1.52,1
6.9,0.553,1.47,-0.0162,1.57,1
6.91,0.502,1.67,-0.125,1.75,1
6.92,0.609,1.77,-0.0376,1.87,1
6.93,0.802,1.76,-0.17,1.94,1
6.94,0.936,1.53,-0.568,1.88,1
6.95,0.766,1.1,-0.355,1.38,1
6.96,0.526,0.82,-0.0898,0.978,1
6.97,0.476,0.729,-0.0575,0.872,1
6.98,0.497,0.63,0.00137,0.802,1
6.99,0.392,0.62,-0.144,0.747,1
7.0,0.299,0.78,0.1,0.842,1
7.01,0.236,0.999,0.265,1.06,1
7.02,-0.0669,1.42,0.134,1.43,1
7.03,-0.573,1.82,-0.488,1.97,1
7.04,-0.932,2.22,-0.843,2.55,1
7.05,-1.11,2.62,-0.237,2.85,1
7.06,-1.15,2.95,-0.177,3.17,1
7.07,-1.04,2.98,-0.581,3.21,1
7.08,-0.767,2.73,-0.562,2.9,1
7.09,-0.532,2.16,-0.606,2.3,1
7.1,-0.0344,1.22,-0.667,1.39,1
7.11,0.567,0.233,-0.686,0.919,1
7.12,1.03,-0.621,-1.06,1.6,1
7.13,1.2,-1.4,-1.17,2.18,1
7.14,0.988,-2.03,-0.761,2.38,1
7.15,0.584,-2.41,-0.724,2.58,1
7.16,0.211,-2.78,-1.21,3.04,1
7.17,-0.501,-3.12,-0.778,3.26,1
7.18,-0.919,-3.25,0.157,3.38,1
7.19,-0.709,-3.4,0.0858,3.47,1
7.2,-0.732,-3.93,-0.141,4.0,1
7.21,-1.04,-4.68,-0.489,4.82,1
7.22,-1.26,-5.69,-0.303,5.84,1
7.23,-1.36,-6.92,-0.394,7.06,1
7.24,-1.21,-8.27,-0.74,8.39,1
7.25,-0.821,-9.78,-0.856,9.85,1
7.26,-0.635,-11.3,-0.726,11.3,1
7.27,-0.412,-12.6,-1.07,12.7,1
7.28,-0.0448,-13.4,-1.07,13.4,1
7.29,0.101,-13.5,-0.974,13.5,1
7.3,-0.0691,-12.9,-0.51,12.9,1
7.31,-0.434,-11.5,0.0372,11.5,1
7.32,-0.788,-10.1,0.676,10.1,1
7.33,-0.837,-8.92,1.05,9.02,1
7.34,-0.614,-7.87,0.657,7.92,1
7.35,-0.763,-6.79,-0.2,6.84,1
7.36,-1.02,-5.09,-1.02,5.29,1
7.37,-1.2,-2.76,-1.78,3.5,1
7.38,-1.09,-0.559,-2.28,2.59,1
7.39,-0.316,1.45,-2.68,3.07,1
7.4,1.03,3.29,-3.07,4.62,1
7.41,1.84,4.74,-2.09,5.5,1
7.42,2.31,5.92,0.153,6.35,1
7.43,2.56,7.08,1.63,7.7,1
7.44,2.47,8.28,1.77,8.82,1
7.45,2.07,9.42,1.14,9.71,1
7.46,1.66,10.3,-1.24,10.5,1
7.47,2.2,12.2,-6.09,13.8,1
7.48,3.64,14.3,-12.5,19.4,1
7.49,4.66,14.3,-12.0,19.2,1
7.5,2.76,11.4,-4.62,12.6,1
7.51,0.221,8.83,0.0763,8.83,1
7.52,-0.506,8.56,2.02,8.81,1
7.53,0.0192,9.22,2.78,9.63,1
7.54,0.79,9.77,2.89,10.2,1
7.55,1.27,10.1,2.95,10.6,1
7.56,1.49,10.3,2.86,10.8,1
7.57,2.24,10.6,2.69,11.2,1
7.58,2.97,10.8,2.76,11.5,1
7.59,3.37,10.7,3.21,11.7,1
7.6,3.47,10.5,3.52,11.6,1
7.61,3.34,10.1,3.48,11.2,1
7.62,3.01,9.66,3.45,10.7,1
7.63,2.7,8.96,3.1,9.86,1
7.64,2.25,8.1,1.68,8.58,1
7.65,1.87,7.36,-0.503,7.61,1
7.66,1.87,6.46,-3.09,7.4,1
7.67,2.25,5.04,-6.53,8.55,1
7.68,2.78,2.8,-8.73,9.58,1
7.69,0.686,-0.578,-4.96,5.04,1
7.7,-1.82,-4.08,-4.12,6.08,1
7.71,-3.14,-7.04,-5.93,9.72,1
7.72,-3.49,-6.83,-0.584,7.7,1
7.73,-2.67,-7.14,5.2,9.23,1
7.74,-3.49,-12.6,5.37,14.1,1
7.75,-4.75,-21.0,3.73,21.9,1
7.76,-0.4,-26.2,-1.04,26.3,1
7.77,8.61,-21.8,-4.44,23.9,1
7.78,9.78,-14.9,-2.56,18.0,1
7.79,4.26,-13.2,-2.86,14.1,1
7.8,-1.07,-11.9,-3.04,12.4,1
7.81,-4.23,-9.28,-2.62,10.5,1
7.82,-6.21,-6.27,-1.74,9.0,1
7.83,-7.35,-2.79,0.5,7.88,1
7.84,-7.8,0.496,2.51,8.21,1
7.85,-7.51,2.85,2.69,8.47,1
7.86,-6.75,3.88,2.44,8.16,1
7.87,-5.16,3.65,2.06,6.65,1
7.88,-3.97,2.23,2.27,5.09,1
7.89,-2.74,-0.191,2.87,3.97,1
7.9,-0.432,-3.06,3.67,4.8,1
7.91,1.44,-4.84,3.29,6.03,1
7.92,2.48,-3.72,1.42,4.69,1
7.93,2.73,-1.51,-0.319,3.14,1
7.94,2.43,0.567,-1.17,2.75,1
7.95,1.99,2.17,-1.72,3.4,1
7.96,1.47,3.12,-2.02,4.0,1
7.97,1.23,3.8,-1.95,4.44,1
7.98,1.43,4.39,-1.71,4.92,1
7.99,1.81,4.93,-1.36,5.42,1
8.0,1.63,5.15,-1.21,5.54,1
8.01,1.35,5.31,-1.02,5.57,1
8.02,0.925,5.28,-0.633,5.39,1
8.03,0.431,4.82,-0.46,4.86,1
8.04,0.073,3.9,-0.725,3.97,1
8.05,0.0276,2.62,-0.863,2.76,1
8.06,0.132,0.982,-0.858,1.31,1
8.07,0.365,-0.802,-0.73,1.14,1
8.08,0.682,-2.52,-0.462,2.65,1
8.09,1.06,-3.61,-0.311,3.77,1
8.1,1.53,-3.8,-0.272,4.1,1
8.11,1.97,-3.22,-0.459,3.8,1
8.12,2.34,-1.92,-0.942,3.17,1
8.13,2.39,-0.469,-1.13,2.68,1
8.14,1.76,0.265,-0.837,1.96,1
8.15,0.669,0.732,-0.0602,0.994,1
8.16,-0.309,1.01,0.594,1.21,1
8.17,-0.965,0.973,0.914,1.65,1
8.18,-1.64,0.7,1.15,2.12,1
8.19,-2.02,0.154,1.21,2.36,1
8.2,-1.94,-0.495,0.985,2.23,1
8.21,-1.65,-0.908,0.518,1.95,1
8.22,-1.19,-1.0,0.186,1.56,1
8.23,-0.791,-0.783,0.0958,1.12,1
8.24,-0.586,-0.383,0.0858,0.705,1
8.25,-0.611,0.00523,0.0727,0.615,1
8.26,-0.696,0.288,0.0189,0.753,1
8.27,-0.818,0.512,0.107,0.971,1
8.28,-0.917,0.663,0.192,1.15,1
8.29,-0.855,0.581,0.279,1.07,1
8.3,-0.633,0.311,0.279,0.758,1
8.31,-0.27,-0.0149,-0.00433,0.27,1
8.32,0.187,-0.248,-0.49,0.581,1
8.33,0.575,-0.335,-0.896,1.12,1
8.34,0.858,-0.362,-1.16,1.49,1
8.35,1.13,-0.24,-1.02,1.54,1
8.36,1.28,-0.0656,-0.532,1.39,1
8.37,1.26,0.097,-0.0588,1.27,1
8.38,1.21,0.179,0.18,1.23,1
8.39,1.14,0.199,0.249,1.18,1
8.4,1.03,0.0701,0.293,1.07,1
8.41,0.819,-0.132,0.277,0.874,1
8.42,0.617,-0.201,0.171,0.671,1
8.43,0.418,-0.127,0.0598,0.441,1
8.44,0.252,-0.0413,-0.0463,0.26,1
8.45,0.213,0.0285,-0.174,0.277,1
8.46,0.224,0.0619,-0.154,0.279,1
8.47,0.19,0.0391,0.0341,0.197,1
8.48,0.154,0.107,0.215,0.285,1
8.49,0.166,0.193,0.344,0.428,1
8.5,0.226,0.247,0.428,0.544,1
8.51,0.284,0.243,0.542,0.658,1
8.52,0.374,0.181,0.701,0.815,1
8.53,0.413,0.11,0.844,0.946,1
8.54,0.365,0.122,0.84,0.924,1
8.55,0.325,0.165,0.756,0.839,1
8.56,0.202,0.184,0.561,0.624,1
8.57,0.16,0.232,0.413,0.5,1
8.59,0.0841,0.217,0.364,0.432,1
8.6,-0.0416,0.265,0.286,0.392,1
8.61,-0.127,0.442,0.147,0.483,1
8.62,-0.159,0.68,0.0263,0.699,1
8.63,-0.165,0.843,-0.0187,0.859,1
8.64,-0.169,0.834,-0.0239,0.851,1
8.65,-0.175,0.668,-0.0571,0.693,1
8.66,-0.232,0.315,-0.0961,0.402,1
8.67,-0.215,0.0148,-0.104,0.239,1
8.68,-0.102,-0.154,-0.16,0.244,1
8.69,0.0481,-0.229,-0.227,0.326,1
8.7,0.163,-0.173,-0.344,0.418,1
8.71,0.367,-0.134,-0.467,0.61,1
8.72,0.72,-0.0299,-0.601,0.938,1
8.73,0.973,0.176,-0.776,1.26,1
8.74,1.09,0.617,-0.585,1.38,1
8.75,1.22,1.39,-0.344,1.89,1
8.76,1.12,2.1,-0.731,2.49,1
8.77,0.793,2.4,-0.954,2.7,1
8.78,0.558,2.13,-0.29,2.22,1
8.79,0.57,1.26,0.252,1.4,1
8.8,0.748,0.15,0.234,0.798,1
8.81,1.0,-0.55,-0.49,1.24,1
8.82,1.14,-0.755,-1.3,1.89,1
8.83,1.13,-0.679,-1.81,2.24,1
8.84,1.1,-0.489,-1.87,2.23,1
8.85,0.887,-0.236,-0.202,0.94,1
8.86,0.602,0.164,1.11,1.27,1
8.87,0.076,0.945,1.55,1.81,1
8.88,-0.473,2.09,1.18,2.44,1
8.89,-0.747,3.39,0.732,3.54,1
8.9,-0.819,4.52,1.09,4.72,1
8.91,-0.766,4.71,1.8,5.1,1
8.92,-0.665,4.18,1.49,4.49,1
8.93,-0.0683,2.81,0.633,2.89,1
8.94,1.08,0.93,0.372,1.47,1
8.95,1.84,-0.741,0.679,2.09,1
8.96,1.48,-2.14,1.12,2.83,1
8.97,0.45,-2.59,1.07,2.84,1
8.98,-0.599,-1.99,0.855,2.25,1
8.99,-1.34,-1.34,0.549,1.97,1
9.0,-1.23,-0.497,0.389,1.39,1
9.01,-0.613,-0.175,-0.508,0.815,1
9.02,-0.177,-0.672,-0.574,0.901,1
9.03,-0.385,-1.03,0.226,1.13,1
9.04,-0.504,-1.29,-0.061,1.39,1
9.05,-0.696,-1.86,-0.0292,1.99,1
9.06,-0.886,-2.27,-0.146,2.44,1
9.07,-0.846,-2.62,-0.0369,2.76,1
9.08,-0.641,-3.19,-0.201,3.26,1
9.09,-0.187,-4.15,-0.601,4.2,1
9.1,0.205,-5.67,-0.591,5.71,1
9.11,0.281,-7.75,-0.793,7.8,1
9.12,0.182,-9.93,-0.642,9.96,1
9.13,0.175,-11.7,-0.566,11.7,1
9.14,0.0897,-12.5,-0.019,12.5,1
9.15,-0.413,-12.1,0.646,12.1,1
9.16,-1.45,-11.0,0.601,11.1,1
9.17,-2.62,-10.0,0.501,10.4,1
9.18,-3.63,-9.34,0.621,10.0,1
9.19,-4.24,-9.02,0.877,10.0,1
9.2,-4.19,-8.66,1.11,9.68,1
9.21,-3.53,-7.65,1.14,8.5,1
9.22,-2.85,-5.93,0.642,6.61,1
9.23,-2.23,-3.68,-0.494,4.33,1
9.24,-1.68,-1.64,-1.57,2.83,1
9.25,-0.905,0.268,-2.54,2.71,1
9.26,-0.106,1.96,-3.29,3.83,1
9.27,0.435,3.12,-3.71,4.87,1
9.28,0.938,4.12,-3.77,5.66,1
9.29,1.35,5.05,-3.29,6.18,1
9.3,1.63,6.24,-2.35,6.86,1
9.31,1.92,7.63,-1.7,8.04,1
9.32,2.31,9.0,-1.18,9.36,1
9.33,2.59,9.91,-0.93,10.3,1
9.34,2.59,10.8,-0.893,11.1,1
9.35,2.59,11.5,-1.22,11.8,1
9.36,2.49,12.0,-1.62,12.4,1
9.37,2.12,12.5,-2.62,12.9,1
9.38,1.54,12.6,-4.01,13.3,1
9.39,1.03,11.8,-4.34,12.6,1
9.4,0.927,10.5,-2.69,10.9,1
9.41,1.23,9.54,-0.418,9.62,1
9.42,1.67,9.09,1.58,9.38,1
9.43,2.49,9.1,3.12,9.94,1
9.44,3.08,9.25,4.21,10.6,1
9.45,3.42,9.57,5.55,11.6,1
9.46,3.71,9.99,6.52,12.5,1
9.47,3.84,10.3,6.02,12.5,1
9.48,3.92,10.3,4.39,11.9,1
9.49,4.0,9.57,2.04,10.6,1
9.5,4.06,8.14,-0.213,9.1,1
9.51,4.06,5.66,-2.89,7.54,1
9.52,3.62,1.72,-7.93,8.89,1
9.53,2.12,-5.08,-14.1,15.1,1
9.54,-1.61,-12.2,-13.0,17.9,1
9.55,-3.6,-14.2,-4.63,15.4,1
9.56,-2.98,-15.7,3.41,16.4,1
9.57,-3.79,-17.5,7.5,19.4,1
9.58,-3.36,-13.3,6.46,15.1,1
9.59,-2.63,-7.84,3.13,8.85,1
9.6,-0.621,-11.0,0.615,11.1,1
9.61,5.27,-14.7,-2.12,15.8,1
9.62,8.85,-15.1,-4.08,18.0,1
9.63,6.15,-12.2,-2.75,13.9,1
9.64,1.02,-8.78,-1.3,8.94,1
9.65,-1.83,-5.69,-0.243,5.98,1
9.66,-3.98,-3.44,-0.144,5.26,1
9.67,-5.13,-1.34,-0.125,5.3,1
9.68,-5.22,0.46,0.527,5.27,1
9.69,-4.92,1.79,1.87,5.56,1
9.7,-4.65,2.99,2.74,6.17,1
9.71,-4.51,4.07,2.87,6.72,1
9.72,-4.27,4.65,2.75,6.89,1
9.73,-3.42,4.73,1.69,6.08,1
9.74,-2.12,4.2,1.46,4.92,1
9.75,-0.148,2.89,1.61,3.31,1
9.76,1.38,1.68,0.382,2.21,1
9.77,2.27,1.1,-0.924,2.69,1
9.78,2.69,1.07,-1.77,3.39,1
9.79,2.73,1.42,-2.16,3.76,1
9.8,2.58,1.9,-2.0,3.78,1
9.81,2.48,2.39,-1.47,3.74,1
9.82,2.31,2.58,-0.837,3.56,1
9.83,2.33,2.62,-0.47,3.54,1
9.84,2.51,2.54,-0.477,3.6,1
9.85,2.42,2.0,-0.928,3.28,1
9.86,1.75,0.666,-1.44,2.36,1
9.87,0.708,-0.991,-1.83,2.2,1
9.88,-0.179,-2.08,-2.17,3.01,1
9.89,-0.831,-2.69,-2.27,3.61,1
9.9,-1.14,-2.89,-2.13,3.77,1
9.91,-1.04,-2.53,-1.51,3.12,1
9.92,-0.563,-1.5,-0.249,1.62,1
9.93,0.00477,-0.413,0.968,1.05,1
9.94,0.234,-0.0207,1.8,1.82,1
9.95,0.322,0.1,1.98,2.0,1
9.96,0.24,0.209,1.54,1.57,1
9.97,0.0339,0.268,1.01,1.05,1
9.98,-0.258,0.234,0.634,0.724,1
9.99,-0.487,0.235,0.269,0.604,1
10.0,-0.7,0.263,-0.211,0.777,1
10.0,-0.862,0.232,-0.549,1.05,1
10.0,-0.922,0.209,-0.499,1.07,1
10.0,-0.831,0.236,-0.395,0.95,1
10.0,-0.684,0.265,-0.281,0.785,1
10.0,-0.522,0.32,-0.187,0.641,1
10.1,-0.314,0.367,-0.0669,0.488,1
10.1,-0.0112,0.43,0.188,0.469,1
10.1,0.296,0.451,0.481,0.723,1
10.1,0.542,0.378,0.788,1.03,1
10.1,0.685,0.275,0.952,1.2,1
10.1,0.747,0.162,0.845,1.14,1
10.1,0.735,0.122,0.547,0.924,1
10.1,0.651,0.144,0.13,0.679,1
10.1,0.503,0.19,-0.268,0.601,1
10.1,0.323,0.251,-0.616,0.739,1
10.2,0.157,0.317,-0.791,0.866,1
10.2,0.0589,0.385,-0.825,0.912,1
10.2,0.118,0.423,-0.77,0.887,1
10.2,0.247,0.428,-0.688,0.847,1
10.2,0.378,0.339,-0.671,0.841,1
10.2,0.455,0.194,-0.551,0.74,1
10.2,0.49,-0.0332,-0.404,0.636,1
10.2,0.569,-0.212,-0.252,0.657,1
10.2,0.623,-0.306,-0.112,0.703,1
10.2,0.624,-0.315,0.05,0.701,1
10.3,0.579,-0.175,0.228,0.647,1
10.3,0.446,-0.0158,0.312,0.545,1
10.3,0.284,0.117,0.29,0.422,1
10.3,0.0555,0.189,0.219,0.295,1
10.3,-0.139,0.223,0.129,0.292,1
10.3,-0.222,0.201,0.11,0.319,1
10.3,-0.238,0.147,0.0634,0.286,1
10.3,-0.159,0.1,-0.0922,0.209,1
10.3,0.0136,0.057,-0.273,0.28,1
10.3,0.202,0.0122,-0.479,0.52,1
10.4,0.349,0.00658,-0.588,0.684,1
10.4,0.43,-0.028,-0.58,0.723,1
10.4,0.412,-0.108,-0.56,0.704,1
10.4,0.35,-0.196,-0.58,0.705,1
10.4,0.263,-0.196,-0.592,0.676,1
10.4,0.183,-0.122,-0.524,0.568,1
10.4,0.11,0.0516,-0.361,0.381,1
10.4,0.0637,0.177,-0.316,0.367,1
10.4,0.0398,0.274,-0.456,0.534,1
10.4,0.0886,0.397,-0.692,0.802,1
10.5,0.164,0.516,-0.799,0.965,1
10.5,0.192,0.673,-0.819,1.08,1
10.5,0.175,0.842,-0.73,1.13,1
10.5,0.179,0.922,-0.688,1.16,1
10.5,0.154,0.995,-0.622,1.18,1
10.5,0.134,1.11,-0.32,1.16,1
10.5,0.127,1.24,-0.0846,1.25,1
10.5,0.139,1.21,-0.29,1.25,1
10.5,0.153,1.19,-0.89,1.49,1
10.5,0.221,1.27,-1.33,1.86,1
10.6,0.284,1.38,-1.21,1.86,1
10.6,0.465,1.62,-0.862,1.89,1
10.6,0.626,1.93,-0.823,2.19,1
10.6,0.51,2.12,-0.568,2.25,1
10.6,0.468,2.19,0.246,2.25,1
10.6,0.308,2.16,0.531,2.25,1
10.6,0.264,2.09,0.354,2.13,1
10.6,0.37,2.03,0.153,2.07,1
10.6,0.659,1.87,-0.147,1.99,1
10.6,0.779,1.58,-0.573,1.85,1
10.7,0.595,1.08,-0.395,1.29,1
10.7,0.291,0.522,0.537,0.804,1
10.7,-0.0412,0.0276,0.575,0.577,1
10.7,-0.407,-0.371,0.338,0.646,1
10.7,-0.724,-0.546,0.828,1.23,1
10.7,-1.05,-0.435,1.14,1.61,1
10.7,-1.35,-0.206,1.21,1.83,1
10.7,-1.25,0.0555,1.18,1.72,1
10.7,-0.688,-0.0836,0.578,0.903,1
10.7,0.0206,-0.773,0.0102,0.773,1
10.8,0.619,-1.46,-0.506,1.66,1
10.8,0.899,-2.01,-1.08,2.46,1
10.8,1.01,-2.53,-0.995,2.9,1
10.8,0.618,-3.18,-0.798,3.34,1
10.8,-0.292,-3.92,-0.693,3.99,1
10.8,-0.857,-4.19,-0.667,4.33,1
10.8,-0.664,-4.53,-0.988,4.69,1
10.8,-0.698,-5.33,-1.04,5.47,1
10.8,-0.962,-6.18,-1.27,6.38,1
10.8,-1.24,-7.13,-1.33,7.36,1
10.9,-1.44,-8.24,-1.3,8.46,1
10.9,-1.8,-9.38,-1.77,9.72,1
10.9,-2.41,-10.6,-2.23,11.1,1
10.9,-3.1,-11.4,-1.93,11.9,1
10.9,-3.44,-11.4,-1.3,11.9,1
10.9,-3.56,-10.8,-0.441,11.4,1
10.9,-3.5,-10.2,0.35,10.8,1
10.9,-3.18,-9.5,0.895,10.1,1
10.9,-2.8,-8.65,1.06,9.15,1
10.9,-2.24,-7.2,1.19,7.63,1
11.0,-1.48,-5.26,1.16,5.59,1
11.0,-0.766,-3.21,0.821,3.4,1
11.0,-0.293,-1.11,0.694,1.34,1
11.0,0.0864,0.423,0.424,0.605,1
11.0,0.613,1.92,-0.279,2.03,1
11.0,1.81,3.51,-0.186,3.96,1
11.0,2.92,4.27,0.316,5.18,1
11.0,3.51,5.25,0.58,6.35,1
11.0,3.78,6.59,0.751,7.64,1
11.0,3.79,8.08,0.972,8.97,1
11.1,3.65,9.47,0.632,10.2,1
20.0,-0.178,-0.448,-0.419,0.638,1
20.0,-0.278,-0.379,-0.723,0.862,1
20.0,-0.292,-0.297,-0.95,1.04,1
20.1,-0.287,-0.282,-1.07,1.15,1
20.1,-0.297,-0.27,-1.1,1.17,1
20.1,-0.319,-0.267,-1.02,1.1,1
20.1,-0.353,-0.243,-0.959,1.05,1
20.1,-0.356,-0.167,-0.857,0.943,1
20.1,-0.329,-0.0956,-0.755,0.829,1
20.1,-0.276,0.038,-0.726,0.778,1
20.1,-0.3,0.111,-0.781,0.844,1
20.1,-0.353,0.092,-0.829,0.906,1
20.1,-0.357,0.148,-0.696,0.796,1
20.2,-0.407,0.176,-0.379,0.583,1
20.2,-0.472,0.137,0.0849,0.499,1
20.2,-0.336,0.101,0.588,0.684,1
20.2,-0.0509,0.101,0.996,1.0,1
20.2,0.127,0.0744,1.17,1.18,1
20.2,0.172,0.174,1.14,1.16,1
20.2,0.114,0.328,1.06,1.11,1
20.2,-0.0304,0.361,0.899,0.97,1
20.2,-0.172,0.27,0.671,0.744,1
20.2,-0.246,0.259,0.507,0.62,1
20.3,-0.321,0.291,0.523,0.679,1
20.3,-0.333,0.303,0.567,0.724,1
20.3,-0.397,0.276,0.474,0.677,1
20.3,-0.477,0.303,0.381,0.682,1
20.3,-0.523,0.353,0.35,0.722,1
20.3,-0.558,0.351,0.3,0.724,1
20.3,-0.587,0.281,0.177,0.675,1
20.3,-0.609,0.295,0.0357,0.678,1
20.3,-0.594,0.35,-0.106,0.697,1
20.3,-0.541,0.349,-0.249,0.691,1
20.4,-0.508,0.342,-0.322,0.692,1
20.4,-0.446,0.45,-0.104,0.642,1
20.4,-0.351,0.457,0.118,0.588,1
20.4,-0.34,0.295,0.103,0.462,1
20.4,-0.434,0.0754,-0.0112,0.441,1
20.4,-0.632,-0.0245,-0.149,0.649,1
20.4,-0.776,-0.0252,-0.212,0.805,1
20.4,-0.8,-0.0538,-0.313,0.861,1
20.4,-0.806,-0.0633,-0.417,0.909,1
20.4,-0.808,-0.0739,-0.362,0.888,1
20.5,-0.821,-0.143,-0.272,0.877,1
20.5,-0.879,-0.219,-0.0952,0.911,1
20.5,-0.935,-0.31,0.0836,0.989,1
20.5,-0.963,-0.342,0.205,1.04,1
20.5,-0.913,-0.346,0.211,0.999,1
20.5,-0.895,-0.313,0.265,0.984,1
20.5,-0.883,-0.243,0.331,0.974,1
20.5,-0.804,-0.219,0.371,0.912,1
20.5,-0.694,-0.193,0.386,0.817,1
20.6,-0.566,-0.158,0.431,0.729,1
20.6,-0.408,-0.113,0.52,0.671,1
20.6,-0.227,-0.0134,0.692,0.729,1
20.6,-0.0856,0.0554,0.859,0.865,1
20.6,0.0525,0.14,0.905,0.917,1
20.6,0.104,0.271,0.835,0.884,1
20.6,0.0461,0.365,0.805,0.885,1
20.6,-0.106,0.388,0.612,0.732,1
20.6,-0.399,0.254,0.413,0.628,1
20.6,-0.722,0.106,0.259,0.774,1
20.7,-0.948,0.0358,0.235,0.978,1
20.7,-1.05,-0.0391,0.262,1.09,1
20.7,-1.07,-0.108,0.186,1.09,1
20.7,-1.15,-0.12,0.0895,1.16,1
20.7,-1.17,-0.0639,0.0494,1.17,1
20.7,-1.21,-0.0535,0.119,1.22,1
20.7,-1.19,-0.105,0.189,1.21,1
20.7,-1.11,-0.0757,0.297,1.15,1
20.7,-0.959,-0.00811,0.363,1.02,1
20.7,-0.813,0.0587,0.366,0.893,1
20.8,-0.676,0.0741,0.295,0.741,1
20.8,-0.579,0.0703,0.164,0.606,1
20.8,-0.506,0.0468,0.0475,0.511,1
20.8,-0.41,0.0193,0.0192,0.411,1
20.8,-0.3,0.0155,0.181,0.351,1
20.8,-0.142,0.0104,0.4,0.425,1
20.8,0.0299,-0.00383,0.596,0.597,1
20.8,0.18,0.0286,0.723,0.745,1
20.8,0.194,0.0708,0.839,0.864,1
20.8,0.141,-0.00736,0.804,0.817,1
20.9,0.0909,-0.174,0.567,0.6,1
20.9,0.0778,-0.216,0.207,0.309,1
20.9,0.0787,-0.136,-0.153,0.219,1
20.9,0.106,-0.0737,-0.421,0.44,1
20.9,0.148,-0.0174,-0.519,0.54,1
20.9,0.19,0.0339,-0.542,0.575,1
20.9,0.192,0.0192,-0.655,0.683,1
20.9,0.137,-0.0016,-0.752,0.764,1
20.9,0.117,0.00425,-0.886,0.894,1
20.9,0.118,-0.0369,-1.1,1.11,1
21.0,0.115,-0.0264,-1.34,1.35,1
21.0,0.0666,0.0321,-1.53,1.53,1
21.0,-0.0209,0.0604,-1.64,1.64,1
21.0,-0.126,0.0456,-1.72,1.73,1
21.0,-0.233,-0.0455,-1.81,1.83,1
21.0,-0.374,-0.114,-1.79,1.83,1
21.0,-0.476,-0.142,-1.64,1.72,1
21.0,-0.506,-0.166,-1.41,1.51,1
21.0,-0.486,-0.189,-1.14,1.25,1
21.0,-0.321,-0.118,-0.85,0.916,1
21.1,-0.0398,0.0481,-0.564,0.567,1
21.1,0.275,0.17,-0.378,0.498,1
21.1,0.484,0.223,-0.323,0.623,1
21.1,0.61,0.246,-0.408,0.774,1
21.1,0.491,0.242,-0.517,0.754,1
21.1,0.235,0.169,-0.728,0.783,1
21.1,0.0668,0.101,-1.02,1.02,1
21.1,0.023,0.013,-1.36,1.36,1
21.1,-0.135,-0.097,-1.72,1.73,1
21.1,-0.483,-0.18,-1.93,2.0,1
21.2,-0.949,-0.205,-1.99,2.21,1
21.2,-1.29,-0.28,-1.95,2.35,1
21.2,-1.37,-0.348,-1.89,2.36,1
21.2,-1.22,-0.276,-1.82,2.21,1
21.2,-0.995,-0.181,-1.72,2.0,1
21.2,-0.759,-0.102,-1.76,1.92,1
21.2,-0.608,-0.0414,-1.88,1.98,1
21.2,-0.54,0.0963,-1.97,2.05,1
21.2,-0.555,0.3,-1.75,1.86,1
21.2,-0.454,0.358,-1.15,1.29,1
21.3,-0.0873,0.335,-0.513,0.619,1
21.3,0.494,0.448,0.0367,0.668,1
21.3,0.98,0.698,0.805,1.45,1
21.3,1.34,1.0,1.8,2.46,1
21.3,1.89,1.45,2.87,3.73,1
21.3,2.85,2.24,4.43,5.72,1
21.3,4.36,3.24,6.35,8.36,1
21.3,6.12,4.23,8.52,11.3,1
21.3,7.64,5.11,11.1,14.4,1
21.3,8.52,5.46,13.4,16.8,1
21.4,8.56,4.82,14.3,17.4,1
21.4,7.39,3.65,13.2,15.6,1
21.4,5.58,3.11,10.9,12.7,1
21.4,4.13,3.34,8.59,10.1,1
21.4,3.25,3.58,6.44,8.05,1
21.4,3.19,3.31,4.73,6.59,1
21.4,3.82,2.55,3.39,5.71,1
21.4,4.22,1.95,2.34,5.21,1
21.4,3.85,1.53,1.39,4.37,1
21.4,2.99,0.851,0.808,3.21,1
21.5,1.92,-0.0531,0.413,1.97,1
21.5,0.81,-1.03,0.195,1.32,1
21.5,-0.448,-1.99,-0.135,2.05,1
21.5,-2.1,-3.02,-0.659,3.74,1
21.5,-3.71,-3.95,-1.12,5.53,1
21.5,-4.94,-4.93,-1.6,7.16,1
21.5,-5.58,-6.03,-2.07,8.47,1
21.5,-5.63,-6.77,-2.87,9.26,1
21.5,-5.25,-6.93,-4.35,9.72,1
21.5,-4.8,-6.7,-6.0,10.2,1
21.6,-4.53,-6.61,-7.63,11.1,1
21.6,-4.46,-6.53,-9.05,12.0,1
21.6,-4.5,-6.41,-10.1,12.8,1
21.6,-4.61,-6.34,-11.0,13.5,1
21.6,-4.8,-6.29,-11.4,13.9,1
21.6,-4.98,-6.24,-11.5,14.0,1
21.6,-4.96,-6.03,-11.1,13.5,1
21.6,-4.65,-5.67,-10.3,12.6,1
21.6,-4.09,-5.26,-9.32,11.5,1
21.6,-3.51,-4.93,-8.34,10.3,1
21.7,-3.15,-4.67,-7.2,9.14,1
21.7,-2.87,-4.46,-5.79,7.85,1
21.7,-2.61,-4.14,-4.31,6.52,1
21.7,-2.28,-3.61,-2.72,5.06,1
21.7,-2.03,-2.87,-1.14,3.7,1
21.7,-1.81,-2.04,0.573,2.79,1
21.7,-1.17,-1.04,2.34,2.81,1
21.7,-0.248,0.164,3.7,3.71,1
21.7,0.644,1.34,4.38,4.63,1
21.7,1.26,2.46,4.43,5.22,1
21.8,1.75,3.55,4.65,6.11,1
21.8,2.71,4.34,5.88,7.8,1
21.8,4.55,4.78,7.9,10.3,1
21.8,6.97,5.03,10.4,13.5,1
21.8,8.98,5.02,12.2,16.0,1
21.8,9.52,4.72,12.8,16.7,1
21.8,8.5,4.34,12.4,15.6,1
21.8,6.41,3.86,10.6,13.0,1
21.8,4.16,3.17,8.3,9.81,1
21.8,2.34,2.49,5.96,6.87,1
21.9,1.09,2.11,3.93,4.6,1
21.9,0.631,2.1,2.3,3.18,1
21.9,0.834,2.27,1.17,2.69,1
21.9,1.41,2.33,0.303,2.74,1
21.9,2.01,2.24,-0.328,3.03,1
21.9,2.38,1.99,-0.996,3.26,1
21.9,2.41,1.54,-1.8,3.38,1
21.9,2.07,0.971,-2.66,3.51,1
21.9,1.49,0.331,-3.5,3.82,1
21.9,0.754,-0.339,-4.12,4.2,1
22.0,-0.0503,-0.939,-4.38,4.48,1
22.0,-0.724,-1.38,-4.26,4.53,1
22.0,-1.26,-1.71,-3.94,4.47,1
22.0,-1.7,-2.09,-3.59,4.49,1
22.0,-1.92,-2.44,-3.33,4.56,1
22.0,-1.92,-2.59,-3.06,4.44,1
22.0,-1.77,-2.55,-2.88,4.24,1
22.0,-1.59,-2.38,-2.84,4.03,1
22.0,-1.32,-2.01,-2.77,3.66,1
22.0,-0.925,-1.48,-2.55,3.09,1
22.1,-0.539,-1.0,-2.23,2.51,1
22.1,-0.091,-0.64,-1.78,1.89,1
22.1,0.451,-0.325,-1.13,1.26,1
22.1,0.904,-0.226,-0.556,1.09,1
22.1,1.23,-0.254,-0.167,1.27,1
22.1,1.42,-0.256,0.181,1.45,1
22.1,1.49,-0.185,0.534,1.6,1
22.1,1.62,-0.102,0.857,1.84,1
22.1,1.92,-0.0434,1.12,2.23,1
22.1,2.28,-0.0379,1.27,2.61,1
22.2,2.37,-0.167,1.06,2.6,1
22.2,2.06,-0.338,0.567,2.17,1
22.2,1.53,-0.489,-0.02,1.6,1
22.2,0.968,-0.667,-0.647,1.34,1
22.2,0.531,-0.801,-1.19,1.53,1
22.2,0.229,-0.883,-1.52,1.77,1
22.2,-0.0168,-0.952,-1.68,1.93,1
22.2,-0.238,-1.01,-1.77,2.05,1
22.2,-0.328,-1.01,-1.89,2.16,1
22.2,-0.363,-0.95,-1.95,2.2,1
22.3,-0.297,-0.849,-1.98,2.17,1
22.3,-0.154,-0.647,-2.01,2.12,1
22.3,-0.0908,-0.476,-2.01,2.06,1
22.3,-0.211,-0.386,-1.92,1.97,1
22.3,-0.352,-0.35,-1.77,1.84,1
22.3,-0.327,-0.222,-1.52,1.57,1
22.3,-0.18,0.0345,-1.28,1.3,1
22.3,-0.161,0.272,-1.18,1.22,1
22.3,-0.274,0.402,-1.18,1.28,1
22.3,-0.452,0.475,-1.11,1.29,1
22.4,-0.552,0.54,-0.859,1.15,1
22.4,-0.43,0.662,-0.326,0.854,1
22.4,-0.304,0.594,0.228,0.705,1
22.4,-0.319,0.375,0.722,0.874,1
22.4,-0.485,0.158,1.1,1.21,1
22.4,-0.801,-0.0915,1.4,1.61,1
22.4,-1.07,-0.309,1.65,1.99,1
22.4,-1.28,-0.586,1.69,2.2,1
22.4,-1.42,-0.749,1.53,2.22,1
22.4,-1.46,-0.725,1.33,2.11,1
22.5,-1.34,-0.601,1.12,1.85,1
22.5,-1.12,-0.472,0.846,1.48,1
22.5,-0.76,-0.31,0.566,0.997,1
22.5,-0.491,-0.181,0.307,0.607,1
22.5,-0.399,-0.194,0.0546,0.447,1
22.5,-0.353,-0.24,-0.202,0.473,1
22.5,-0.321,-0.239,-0.397,0.564,1
22.5,-0.356,-0.239,-0.499,0.658,1
22.5,-0.42,-0.274,-0.64,0.813,1
22.5,-0.432,-0.315,-0.747,0.918,1
22.6,-0.399,-0.325,-0.738,0.9,1
22.6,-0.374,-0.369,-0.716,0.888,1
22.6,-0.446,-0.406,-0.773,0.98,1
22.6,-0.533,-0.399,-0.721,0.981,1
22.6,-0.579,-0.414,-0.688,0.99,1
22.6,-0.537,-0.499,-0.857,1.13,1
22.6,-0.418,-0.555,-1.09,1.29,1
22.6,-0.276,-0.414,-1.16,1.26,1
22.6,-0.324,-0.174,-1.14,1.2,1
22.6,-0.517,-0.0399,-0.932,1.07,1
22.7,-0.651,0.0595,-0.573,0.869,1
22.7,-0.567,0.132,-0.108,0.593,1
22.7,-0.366,0.0163,0.47,0.596,1
22.7,-0.285,-0.0474,0.592,0.659,1
22.7,-0.421,-0.117,0.462,0.636,1
22.7,-0.614,0.0193,0.16,0.635,1
22.7,-0.704,-0.0722,-0.0873,0.713,1
22.7,-0.783,-0.122,-0.308,0.85,1
22.7,-0.867,-0.106,-0.57,1.04,1
22.7,-0.867,-0.142,-0.695,1.12,1
22.8,-0.822,-0.14,-0.905,1.23,1
22.8,-0.733,-0.506,-0.838,1.22,1
22.8,-0.707,-0.616,-0.889,1.29,1
22.8,-0.763,-0.815,-0.995,1.5,1
22.8,-0.864,-1.03,-1.25,1.84,1
22.8,-1.01,-1.22,-1.63,2.27,1
22.8,-1.1,-1.32,-1.97,2.62,1
22.8,-1.11,-1.31,-2.04,2.67,1
22.8,-1.08,-1.18,-1.67,2.31,1
22.8,-0.946,-1.07,-1.32,1.94,1
22.9,-0.581,-0.946,-0.769,1.35,1
22.9,0.00701,-0.572,0.0115,0.573,1
22.9,0.642,-0.0229,0.761,0.995,1
22.9,1.36,0.893,1.71,2.36,1
22.9,2.29,2.37,2.88,4.37,1
22.9,3.47,4.08,4.3,6.87,1
22.9,4.68,5.77,5.91,9.49,1
22.9,5.59,7.15,7.2,11.6,1
22.9,5.73,7.92,7.53,12.3,1
22.9,5.04,8.02,7.7,12.2,1
23.0,3.8,7.78,7.21,11.3,1
23.0,2.52,7.49,6.78,10.4,1
23.0,1.37,7.23,6.46,9.8,1
23.0,0.429,7.34,5.88,9.42,1
23.0,0.0569,7.86,5.09,9.36,1
23.0,0.867,8.38,5.12,9.86,1
23.0,2.24,8.36,5.34,10.2,1
23.0,3.4,7.76,5.45,10.1,1
23.0,4.11,6.76,5.46,9.62,1
23.0,4.68,5.23,5.31,8.8,1
23.1,5.0,3.57,4.78,7.78,1
23.1,4.57,1.76,3.64,6.1,1
23.1,2.73,-0.543,1.33,3.09,1
23.1,-0.107,-2.91,-1.4,3.23,1
23.1,-2.83,-4.63,-3.67,6.55,1
23.1,-4.68,-5.69,-5.16,9.0,1
23.1,-6.02,-6.91,-6.0,11.0,1
23.1,-6.94,-7.75,-6.24,12.1,1
23.1,-7.22,-8.03,-6.03,12.4,1
23.1,-7.03,-8.18,-5.26,12.0,1
23.2,-6.43,-8.36,-4.12,11.3,1
23.2,-5.4,-8.43,-2.94,10.4,1
23.2,-4.47,-8.48,-2.25,9.85,1
23.2,-4.25,-8.73,-2.45,10.0,1
23.2,-4.69,-8.87,-3.25,10.5,1
23.2,-5.51,-8.69,-4.4,11.2,1
23.2,-6.3,-8.29,-5.28,11.7,1
23.2,-6.34,-7.84,-5.36,11.4,1
23.2,-5.7,-7.45,-5.28,10.8,1
23.2,-4.85,-7.04,-5.09,9.95,1
23.3,-3.83,-6.62,-4.71,8.98,1
23.3,-2.95,-6.23,-4.41,8.18,1
23.3,-2.27,-5.85,-4.2,7.55,1
23.3,-2.01,-5.73,-4.24,7.4,1
23.3,-2.29,-5.47,-4.41,7.39,1
23.3,-2.78,-4.81,-4.02,6.85,1
23.3,-3.06,-3.67,-3.32,5.82,1
23.3,-2.9,-2.21,-2.59,4.47,1
23.3,-2.44,-0.622,-1.98,3.2,1
23.3,-1.65,0.923,-1.21,2.25,1
23.4,-0.607,2.44,-0.507,2.56,1
23.4,0.51,4.08,0.175,4.12,1
23.4,2.06,5.67,1.4,6.19,1
23.4,4.52,6.89,4.12,9.22,1
23.4,7.86,7.5,8.2,13.6,1
23.4,11.5,7.45,12.5,18.5,1
23.4,13.5,6.44,14.7,21.0,1
23.4,13.0,5.04,14.6,20.2,1
23.4,10.3,3.93,13.5,17.4,1
23.4,6.69,3.22,12.1,14.2,1
23.5,3.38,2.74,10.4,11.3,1
23.5,0.949,2.12,8.13,8.45,1
23.5,-0.253,1.78,5.53,5.82,1
23.5,-0.634,1.78,3.02,3.56,1
23.5,-0.442,1.79,0.972,2.09,1
23.5,0.126,2.05,-0.278,2.07,1
23.5,0.654,2.08,-1.09,2.44,1
23.5,0.994,1.93,-1.84,2.85,1
23.5,1.23,1.7,-2.51,3.27,1
23.5,1.21,1.29,-2.98,3.46,1
23.6,0.846,0.784,-3.32,3.51,1
23.6,0.367,0.297,-3.5,3.53,1
23.6,-0.132,-0.0261,-3.59,3.6,1
23.6,-0.538,-0.111,-3.52,3.56,1
23.6,-0.887,-0.177,-3.4,3.52,1
23.6,-1.12,-0.344,-3.24,3.44,1
23.6,-1.14,-0.513,-3.1,3.34,1
23.6,-1.02,-0.685,-2.87,3.12,1
23.6,-1.01,-0.858,-2.56,2.88,1
23.6,-1.12,-1.01,-2.31,2.76,1
23.7,-1.31,-1.11,-2.11,2.72,1
23.7,-1.44,-1.09,-1.83,2.57,1
23.7,-1.42,-1.07,-1.55,2.36,1
23.7,-1.36,-1.09,-1.4,2.24,1
23.7,-1.27,-1.09,-1.34,2.14,1
23.7,-1.08,-0.994,-1.23,1.92,1
23.7,-0.715,-0.693,-0.987,1.4,1
23.7,-0.054,-0.292,-0.538,0.615,1
23.7,0.739,0.0124,0.0653,0.742,1
23.7,1.54,0.156,0.607,1.66,1
23.8,2.12,0.194,1.2,2.44,1
23.8,2.43,0.0909,1.63,2.93,1
23.8,2.45,-0.191,1.81,3.05,1
23.8,2.05,-0.581,1.66,2.71,1
23.8,1.41,-0.917,1.39,2.18,1
23.8,0.833,-1.18,1.05,1.79,1
23.8,0.273,-1.31,0.624,1.48,1
23.8,-0.227,-1.38,0.219,1.41,1
23.8,-0.637,-1.5,-0.17,1.64,1
23.8,-0.968,-1.61,-0.462,1.94,1
23.9,-1.2,-1.6,-0.679,2.11,1
23.9,-1.3,-1.49,-0.9,2.17,1
23.9,-1.32,-1.35,-1.19,2.23,1
23.9,-1.3,-1.21,-1.46,2.3,1
23.9,-1.22,-1.05,-1.65,2.31,1
23.9,-1.03,-0.819,-1.73,2.17,1
23.9,-0.795,-0.6,-1.66,1.94,1
23.9,-0.563,-0.405,-1.52,1.67,1
23.9,-0.391,-0.27,-1.35,1.43,1
23.9,-0.222,-0.163,-1.17,1.2,1
24.0,-0.0188,-0.0599,-0.962,0.964,1
24.0,0.141,0.0101,-0.785,0.798,1
24.0,0.175,-0.00531,-0.703,0.725,1
24.0,0.145,-0.04,-0.68,0.696,1
24.0,0.0852,-0.0872,-0.668,0.679,1
24.0,0.0532,-0.0919,-0.609,0.619,1
24.0,0.134,0.00419,-0.462,0.481,1
24.0,0.298,0.0374,-0.246,0.388,1
24.0,0.497,0.0106,0.0141,0.497,1
24.0,0.633,-0.0119,0.264,0.686,1
24.1,0.678,-0.0533,0.406,0.792,1
24.1,0.611,-0.0848,0.42,0.746,1
24.1,0.502,-0.102,0.341,0.615,1
24.1,0.386,-0.0804,0.156,0.424,1
24.1,0.285,-0.0423,-0.0394,0.291,1
24.1,0.203,-0.00424,-0.184,0.274,1
24.1,0.171,0.00288,-0.291,0.338,1
24.1,0.188,-0.0648,-0.416,0.462,1
24.1,0.187,-0.139,-0.605,0.648,1
24.1,0.187,-0.15,-0.817,0.852,1
24.2,0.161,-0.118,-1.0,1.02,1
24.2,0.157,-0.0872,-1.08,1.09,1
24.2,0.221,-0.113,-1.08,1.11,1
24.2,0.335,-0.142,-1.1,1.16,1
24.2,0.478,-0.18,-1.07,1.19,1
24.2,0.637,-0.172,-0.991,1.19,1
24.2,0.734,-0.189,-0.884,1.16,1
24.2,0.76,-0.236,-0.836,1.15,1
24.2,0.738,-0.312,-0.846,1.17,1
24.2,0.687,-0.34,-0.836,1.13,1
24.3,0.53,-0.383,-0.893,1.11,1
24.3,0.334,-0.435,-1.02,1.16,1
24.3,0.127,-0.531,-1.23,1.35,1
24.3,-0.0835,-0.636,-1.44,1.58,1
24.3,-0.247,-0.722,-1.57,1.74,1
24.3,-0.38,-0.777,-1.7,1.91,1
24.3,-0.544,-0.795,-1.85,2.08,1
24.3,-0.65,-0.798,-1.94,2.19,1
24.3,-0.678,-0.814,-1.94,2.21,1
24.3,-0.71,-0.862,-1.91,2.21,1
24.4,-0.668,-0.944,-1.79,2.14,1
24.4,-0.56,-0.998,-1.64,2.0,1
24.4,-0.444,-1.04,-1.58,1.94,1
24.4,-0.35,-1.0,-1.61,1.93,1
24.4,-0.374,-0.915,-1.65,1.92,1
24.4,-0.465,-0.783,-1.71,1.93,1
24.4,-0.621,-0.562,-1.7,1.9,1
24.4,-0.796,-0.278,-1.49,1.71,1
24.4,-0.994,-0.0855,-1.2,1.56,1
24.4,-1.15,0.0253,-1.01,1.53,1
24.5,-1.19,0.205,-0.587,1.34,1
24.5,-0.972,0.502,0.242,1.12,1
24.5,-0.381,0.88,1.48,1.77,1
24.5,0.989,1.46,3.16,3.62,1
24.5,2.81,2.17,4.9,6.05,1
24.5,4.72,3.05,6.37,8.5,1
24.5,6.27,3.82,7.37,10.4,1
24.5,7.05,4.41,8.12,11.6,1
24.5,6.88,4.85,8.26,11.8,1
24.5,6.08,5.09,7.7,11.1,1
24.6,5.29,5.2,6.82,10.1,1
24.6,4.67,5.3,5.8,9.14,1
24.6,4.36,5.47,5.06,8.64,1
24.6,4.3,5.83,4.27,8.41,1
24.6,4.43,5.94,4.08,8.46,1
24.6,4.88,5.73,4.12,8.58,1
24.6,5.42,5.43,4.36,8.82,1
24.6,5.75,5.18,4.86,9.14,1
24.6,5.68,5.09,5.39,9.34,1
24.6,5.23,4.62,5.93,9.16,1
24.7,4.46,3.9,6.24,8.61,1
24.7,3.46,2.91,6.11,7.61,1
24.7,2.23,1.66,5.59,6.24,1
24.7,1.02,0.504,4.78,4.91,1
24.7,-0.199,-0.667,3.63,3.7,1
24.7,-1.49,-1.93,2.28,3.35,1
24.7,-2.85,-3.54,0.526,4.57,1
24.7,-4.32,-5.2,-1.71,6.97,1
24.7,-5.9,-6.4,-3.99,9.57,1
24.7,-7.42,-7.15,-5.94,11.9,1
24.8,-8.62,-7.21,-7.14,13.3,1
24.8,-9.34,-6.69,-7.53,13.7,1
24.8,-9.61,-6.26,-7.59,13.8,1
24.8,-9.34,-6.34,-7.34,13.5,1
24.8,-8.76,-6.44,-6.76,12.8,1
24.8,-8.16,-6.22,-6.28,12.0,1
24.8,-7.78,-6.07,-5.89,11.5,1
24.8,-7.68,-6.02,-5.49,11.2,1
24.8,-7.58,-5.94,-5.25,11.0,1
24.8,-7.36,-5.85,-4.95,10.6,1
24.9,-7.05,-5.85,-4.59,10.2,1
24.9,-6.56,-5.82,-4.22,9.73,1
24.9,-5.72,-5.36,-3.87,8.75,1
24.9,-4.65,-4.6,-3.31,7.33,1
24.9,-3.48,-3.78,-2.52,5.72,1
24.9,-2.19,-2.85,-1.56,3.92,1
24.9,-1.08,-2.02,-0.537,2.35,1
24.9,-0.337,-1.25,0.642,1.44,1
24.9,-0.165,-0.466,1.84,1.9,1
24.9,-0.471,0.179,2.78,2.82,1
25.0,-0.875,0.509,2.83,3.01,1
25.0,-0.982,0.462,1.76,2.07,1
25.0,-0.395,0.401,0.944,1.1,1
25.0,1.44,1.21,1.21,2.24,1
25.0,4.37,2.73,2.52,5.74,1
25.0,7.73,4.15,4.48,9.84,1
25.0,10.3,4.73,6.38,13.0,1
25.0,11.4,4.27,7.76,14.4,1
35.8,0.868,7.5,2.4,7.93,1
35.8,0.866,6.63,3.99,7.79,1
35.8,0.552,5.59,6.53,8.61,1
35.8,0.347,4.62,7.72,9.0,1
35.8,1.06,4.24,3.44,5.56,1
35.8,2.27,3.89,-2.42,5.12,1
35.8,2.89,2.73,-5.23,6.57,1
35.9,2.89,0.611,-6.12,6.8,1
35.9,2.18,-3.25,-5.52,6.76,1
35.9,0.935,-9.62,-5.09,10.9,1
35.9,-3.94,-23.6,1.03,23.9,1
35.9,-8.16,-43.5,21.3,49.1,1
35.9,2.05,-49.6,35.2,60.9,1
35.9,7.12,-37.3,16.7,41.5,1
35.9,2.75,-22.2,-8.01,23.8,1
35.9,-4.08,-12.2,-15.7,20.3,1
35.9,-8.65,-4.42,-14.6,17.5,1
36.0,-11.5,1.78,-12.2,16.9,1
36.0,-12.2,7.26,-9.91,17.3,1
36.0,-11.8,10.6,-6.55,17.2,1
36.0,-10.2,12.3,-3.13,16.3,1
36.0,-7.73,12.8,-2.25,15.1,1
36.0,-5.27,11.5,-2.33,12.9,1
36.0,-1.94,8.67,-2.45,9.22,1
36.0,1.57,4.79,-2.09,5.46,1
36.0,5.14,0.0489,-2.23,5.61,1
36.0,7.54,-5.45,-2.1,9.54,1
36.1,8.16,-10.8,-0.648,13.5,1
36.1,8.23,-11.8,2.18,14.6,1
36.1,7.06,-8.48,5.87,12.5,1
36.1,4.64,-2.93,7.1,8.97,1
36.1,2.83,1.52,4.72,5.71,1
36.1,1.12,4.17,1.46,4.56,1
36.1,-0.225,5.97,-0.719,6.02,1
36.1,-0.973,7.02,-1.53,7.25,1
36.1,-1.66,7.65,-1.62,7.99,1
36.1,-2.18,8.15,-1.3,8.54,1
36.2,-2.68,8.42,-0.764,8.86,1
36.2,-3.3,8.18,-0.291,8.82,1
36.2,-4.47,6.58,0.0698,7.96,1
36.2,-5.28,4.13,0.696,6.74,1
36.2,-4.6,1.79,1.36,5.12,1
36.2,-2.99,-0.678,1.41,3.38,1
36.2,-1.25,-3.42,0.966,3.77,1
36.2,-0.467,-6.26,-0.256,6.28,1
36.2,-0.0344,-8.75,-0.916,8.8,1
36.2,0.942,-10.0,-0.708,10.1,1
36.3,2.74,-9.21,0.958,9.66,1
36.3,3.97,-6.5,3.38,8.33,1
36.3,3.63,-3.62,4.63,6.91,1
36.3,2.87,-1.37,3.67,4.86,1
36.3,2.06,0.131,2.08,2.93,1
36.3,1.4,1.04,0.658,1.86,1
36.3,0.812,1.76,-0.604,2.03,1
36.3,0.223,2.5,-1.22,2.79,1
36.3,-0.247,3.2,-1.12,3.4,1
36.3,-0.793,3.67,-0.871,3.85,1
36.4,-1.43,3.71,-0.518,4.01,1
36.4,-2.0,3.29,-0.24,3.86,1
36.4,-2.38,2.17,0.175,3.22,1
36.4,-2.24,1.08,0.68,2.58,1
36.4,-1.67,0.412,0.928,1.95,1
36.4,-1.23,-0.203,0.725,1.44,1
36.4,-0.779,-0.652,0.358,1.08,1
36.4,-0.229,-0.891,0.133,0.929,1
36.4,0.432,-0.931,0.0867,1.03,1
36.4,1.01,-0.77,-0.00579,1.27,1
36.5,1.47,-0.621,-0.272,1.62,1
36.5,1.7,-0.519,-0.597,1.87,1
36.5,1.54,-0.427,-0.817,1.79,1
36.5,1.07,-0.318,-0.732,1.33,1
36.5,0.55,-0.189,-0.432,0.725,1
36.5,0.143,-0.0195,-0.256,0.293,1
36.5,-0.151,0.205,-0.125,0.284,1
36.5,-0.273,0.42,-0.0864,0.508,1
36.5,-0.304,0.558,-0.134,0.649,1
36.5,-0.283,0.604,-0.192,0.694,1
36.6,-0.308,0.54,-0.142,0.638,1
36.6,-0.335,0.428,-0.0806,0.55,1
36.6,-0.441,0.204,0.0248,0.486,1
36.6,-0.572,-0.0888,0.248,0.63,1
36.6,-0.666,-0.351,0.552,0.933,1
36.6,-0.731,-0.52,0.871,1.25,1
36.6,-0.701,-0.587,1.15,1.47,1
36.6,-0.589,-0.588,1.35,1.59,1
36.6,-0.373,-0.516,1.54,1.67,1
36.6,-0.134,-0.465,1.69,1.76,1
36.7,0.0313,-0.467,1.77,1.83,1
36.7,0.128,-0.554,1.79,1.88,1
36.7,0.139,-0.83,1.72,1.92,1
36.7,0.0752,-1.25,1.58,2.02,1
36.7,0.0518,-1.57,1.44,2.13,1
36.7,0.0917,-1.46,1.35,1.99,1
36.7,0.15,-1.05,1.2,1.6,1
36.7,0.198,-0.562,0.973,1.14,1
36.7,0.235,-0.0832,0.624,0.671,1
36.7,0.247,0.346,0.29,0.515,1
36.8,0.25,0.744,0.185,0.806,1
36.8,0.225,1.12,0.434,1.22,1
36.8,0.248,1.32,0.83,1.58,1
36.8,0.252,1.37,1.29,1.89,1
36.8,0.2,1.4,2.04,2.48,1
36.8,0.0872,1.34,2.97,3.26,1
36.8,-0.0521,1.13,3.32,3.51,1
36.8,0.0246,1.0,2.95,3.12,1
36.8,0.352,1.07,2.54,2.78,1
36.8,0.556,1.12,1.98,2.34,1
36.9,0.58,1.2,1.02,1.67,1
36.9,0.56,1.55,-0.0144,1.65,1
36.9,0.497,1.61,-0.363,1.73,1
36.9,0.247,1.71,0.000398,1.72,1
36.9,-0.405,1.86,0.706,2.03,1
36.9,-0.767,1.78,0.49,2.0,1
36.9,-0.545,1.93,-1.99,2.82,1
36.9,-0.301,2.09,-3.46,4.05,1
36.9,-0.346,2.35,-3.07,3.89,1
36.9,-0.326,2.25,-1.56,2.75,1
37.0,-0.156,1.78,-0.21,1.8,1
37.0,-0.0577,0.64,1.72,1.83,1
37.0,0.456,-0.715,2.32,2.47,1
37.0,1.56,-1.72,0.965,2.51,1
37.0,2.39,-2.24,-0.925,3.41,1
37.0,2.21,-1.84,-2.28,3.67,1
37.0,0.831,-1.09,-1.86,2.31,1
37.0,-0.364,-0.27,-1.93,1.98,1
37.0,-0.649,0.697,-2.26,2.45,1
37.0,-0.962,1.38,-1.81,2.47,1
37.1,-1.21,1.71,-2.41,3.2,1
37.1,-1.3,1.43,-3.0,3.56,1
37.1,-1.6,0.487,-3.0,3.44,1
37.1,-2.21,-1.27,-2.67,3.69,1
37.1,-2.65,-4.11,-2.37,5.44,1
37.1,-3.01,-8.3,-1.71,8.99,1
37.1,-3.17,-13.4,-0.106,13.8,1
37.1,-2.68,-18.1,1.3,18.3,1
37.1,-1.02,-19.3,1.91,19.4,1
37.1,-0.182,-18.3,2.16,18.4,1
37.2,0.189,-15.5,0.617,15.6,1
37.2,0.432,-12.4,-1.4,12.5,1
37.2,0.245,-10.2,-2.46,10.5,1
37.2,-0.393,-8.99,-2.97,9.48,1
37.2,-1.2,-8.11,-2.76,8.65,1
37.2,-1.92,-7.08,-1.92,7.58,1
37.2,-2.63,-5.74,-0.532,6.34,1
37.2,-2.89,-3.96,1.13,5.03,1
37.2,-2.73,-2.18,2.55,4.32,1
37.2,-2.0,-0.579,3.19,3.81,1
37.3,-0.634,0.897,3.33,3.5,1
37.3,1.16,2.64,3.61,4.62,1
37.3,2.52,4.28,3.58,6.13,1
37.3,3.26,5.44,3.48,7.23,1
37.3,3.23,6.36,3.66,8.02,1
37.3,2.81,7.35,3.52,8.62,1
37.3,2.41,8.68,4.01,9.86,1
37.3,1.75,10.2,6.28,12.1,1
37.3,0.691,11.4,8.71,14.4,1
37.3,-0.635,11.8,8.81,14.8,1
37.4,-1.45,11.5,6.27,13.2,1
37.4,-1.59,11.0,1.91,11.3,1
37.4,-0.993,10.9,-2.14,11.1,1
37.4,0.12,11.1,-4.64,12.0,1
37.4,1.05,10.9,-4.97,12.1,1
37.4,1.56,10.6,-4.37,11.6,1
37.4,1.8,10.7,-4.14,11.6,1
37.4,1.7,10.8,-4.3,11.7,1
37.4,1.28,10.8,-4.05,11.6,1
37.4,0.962,10.8,-2.86,11.2,1
37.5,1.11,10.7,-0.62,10.8,1
37.5,1.34,10.0,1.13,10.2,1
37.5,1.37,8.88,1.53,9.12,1
37.5,1.46,7.85,1.52,8.12,1
37.5,1.11,6.69,2.24,7.14,1
37.5,0.323,5.7,4.03,6.98,1
37.5,-1.14,4.56,6.95,8.39,1
37.5,-2.54,2.97,11.8,12.4,1
37.5,-1.26,2.17,9.95,10.3,1
37.5,2.07,2.73,-0.936,3.55,1
37.6,4.48,2.32,-7.79,9.29,1
37.6,3.98,-0.169,-8.81,9.67,1
37.6,2.92,-3.12,-7.55,8.67,1
37.6,1.37,-9.0,-6.42,11.1,1
37.6,-2.88,-19.9,-5.68,20.9,1
37.6,-7.13,-32.9,3.27,33.8,1
37.6,-5.57,-43.2,29.6,52.7,1
37.6,4.68,-38.1,36.7,53.1,1
37.6,5.4,-18.8,1.99,19.6,1
37.6,-1.47,-8.38,-12.7,15.3,1
37.7,-5.89,-3.82,-13.2,15.0,1
37.7,-7.92,0.379,-14.4,16.4,1
37.7,-9.7,3.09,-13.6,17.0,1
37.7,-10.1,5.39,-11.7,16.3,1
37.7,-9.43,8.02,-9.55,15.6,1
37.7,-7.61,9.23,-5.64,13.2,1
37.7,-5.36,8.04,-2.05,9.88,1
37.7,-2.79,5.73,-1.54,6.55,1
37.7,0.0132,2.53,-0.743,2.63,1
37.7,2.8,-0.788,1.75,3.39,1
37.8,5.16,-4.19,3.39,7.46,1
37.8,6.76,-6.68,3.34,10.1,1
37.8,7.75,-6.92,3.49,11.0,1
37.8,7.15,-4.8,4.14,9.56,1
37.8,5.35,-1.45,4.5,7.14,1
37.8,3.63,1.92,4.26,5.91,1
37.8,1.86,4.25,3.56,5.85,1
37.8,-0.0667,5.61,2.35,6.08,1
37.8,-1.88,6.19,1.34,6.61,1
37.8,-3.13,6.19,0.756,6.98,1
37.9,-4.1,5.97,0.434,7.25,1
37.9,-5.29,5.17,0.612,7.42,1
37.9,-6.47,3.71,1.35,7.58,1
37.9,-6.58,1.13,2.08,6.99,1
37.9,-5.24,-1.22,2.21,5.82,1
37.9,-3.09,-2.64,2.32,4.68,1
37.9,-1.03,-3.65,2.54,4.57,1
37.9,0.848,-4.24,2.02,4.77,1
37.9,2.83,-4.37,1.12,5.33,1
37.9,5.05,-3.42,0.038,6.1,1
38.0,6.48,-2.47,-0.694,6.97,1
38.0,6.92,-1.91,-0.757,7.22,1
38.0,5.98,-1.46,-0.0181,6.15,1
38.0,4.75,-0.771,1.0,4.91,1
38.0,3.72,0.133,1.31,3.95,1
38.0,2.39,0.75,0.968,2.69,1
38.0,0.968,1.03,0.286,1.44,1
38.0,-0.469,1.38,-0.0856,1.46,1
38.0,-1.98,1.51,-0.0389,2.49,1
38.0,-3.25,1.42,-0.135,3.55,1
38.1,-4.0,1.47,-0.037,4.26,1
38.1,-4.23,1.6,0.504,4.55,1
38.1,-4.06,1.35,0.723,4.34,1
38.1,-3.44,0.596,0.388,3.52,1
38.1,-2.63,-0.261,0.0683,2.65,1
38.1,-1.77,-0.924,-0.0468,2.0,1
38.1,-0.976,-1.38,0.0405,1.69,1
38.1,-0.215,-1.49,0.123,1.51,1
38.1,0.562,-1.16,0.172,1.3,1
38.1,1.26,-0.563,0.119,1.39,1
38.2,1.75,-0.104,-0.0301,1.76,1
38.2,1.95,0.176,-0.282,1.98,1
38.2,1.79,0.32,-0.478,1.88,1
38.2,1.36,0.355,-0.409,1.46,1
38.2,0.9,0.326,-0.161,0.971,1
38.2,0.387,0.214,0.226,0.496,1
38.2,0.047,0.179,0.584,0.613,1
38.2,-0.0981,0.14,0.7,0.721,1
38.2,-0.122,0.119,0.47,0.5,1
38.2,-0.0665,0.0767,0.132,0.166,1
38.3,-0.0874,0.00661,-0.0721,0.114,1
38.3,-0.0892,-0.113,-0.00184,0.144,1
38.3,-0.13,-0.216,0.194,0.318,1
38.3,-0.163,-0.279,0.52,0.612,1
38.3,-0.137,-0.274,0.865,0.918,1
38.3,-0.0782,-0.235,1.17,1.2,1
38.3,-0.0635,-0.251,1.44,1.46,1
38.3,-0.154,-0.313,1.68,1.71,1
38.3,-0.33,-0.317,1.89,1.94,1
38.3,-0.491,-0.238,2.12,2.19,1
38.4,-0.497,-0.151,2.32,2.38,1
38.4,-0.346,-0.119,2.56,2.59,1
38.4,-0.132,-0.169,2.88,2.89,1
38.4,0.211,-0.196,3.14,3.15,1
38.4,0.743,-0.104,3.32,3.41,1
38.4,1.06,0.00901,3.37,3.54,1
38.4,1.36,0.316,2.67,3.01,1
38.4,1.8,1.01,0.962,2.27,1
38.4,1.8,1.96,-0.514,2.71,1
38.4,1.32,3.27,-1.55,3.85,1
38.5,0.442,4.35,-2.42,5.0,1
38.5,-0.523,5.05,-0.586,5.11,1
38.5,-1.34,5.68,0.206,5.84,1
38.5,-1.78,5.94,-0.89,6.26,1
38.5,-1.46,6.09,-1.36,6.41,1
38.5,-0.657,5.42,-0.0729,5.46,1
38.5,0.63,3.84,1.14,4.06,1
38.5,1.63,2.01,1.3,2.9,1
38.5,1.91,-0.143,0.142,1.92,1
38.5,1.34,-2.04,-0.714,2.54,1
38.6,0.208,-2.62,-1.45,3.0,1
38.6,-0.648,-2.18,-2.1,3.1,1
38.6,-0.821,-1.08,-2.09,2.49,1
38.6,-0.0294,0.0183,-1.13,1.13,1
38.6,0.716,1.03,0.0652,1.25,1
38.6,1.23,1.5,1.6,2.51,1
38.6,1.84,1.19,1.66,2.75,1
38.6,1.86,0.415,1.17,2.24,1
38.6,1.14,-0.676,0.564,1.44,1
38.6,0.0026,-1.76,-0.651,1.88,1
38.7,-1.65,-2.9,-0.512,3.37,1
38.7,-2.79,-3.86,-0.682,4.82,1
38.7,-3.46,-4.53,-0.222,5.7,1
38.7,-3.05,-4.83,-0.238,5.72,1
38.7,-2.14,-4.54,-0.755,5.08,1
38.7,-1.72,-4.19,-0.0669,4.53,1
38.7,-1.52,-3.99,0.411,4.29,1
38.7,-1.11,-4.14,-0.758,4.35,1
38.7,-1.01,-4.57,-1.05,4.79,1
38.7,-1.26,-5.81,-0.174,5.95,1
38.8,-1.36,-7.38,0.0153,7.5,1
38.8,-1.21,-8.73,-0.11,8.81,1
38.8,-1.02,-9.86,0.181,9.92,1
38.8,-0.959,-10.5,0.481,10.6,1
38.8,-0.755,-10.6,0.499,10.6,1
38.8,-0.435,-10.0,-0.245,10.0,1
38.8,-0.443,-9.15,-0.877,9.2,1
38.8,-0.553,-8.56,-1.32,8.68,1
38.8,-0.475,-8.11,-1.99,8.36,1
38.8,-0.296,-7.56,-2.21,7.88,1
38.9,0.132,-6.87,-2.35,7.27,1
38.9,0.658,-6.34,-1.83,6.63,1
38.9,0.844,-5.62,-1.14,5.8,1
38.9,0.702,-4.68,-0.428,4.75,1
38.9,0.798,-3.61,0.983,3.83,1
38.9,1.05,-2.42,2.47,3.61,1
38.9,1.54,-0.901,3.28,3.73,1
38.9,2.16,0.773,3.27,3.99,1
38.9,2.68,2.53,2.68,4.56,1
38.9,2.95,4.38,1.86,5.6,1
39.0,2.79,5.82,1.28,6.59,1
39.0,2.38,6.71,1.05,7.2,1
39.0,1.59,7.49,1.12,7.73,1
39.0,0.532,8.22,1.93,8.46,1
39.0,-1.59,8.99,3.83,9.9,1
39.0,-3.85,10.0,6.97,12.8,1
39.0,-7.38,11.0,11.5,17.5,1
39.0,-8.01,11.9,13.8,19.9,1
39.0,-5.14,12.6,9.72,16.7,1
39.0,-4.11,12.5,2.53,13.4,1
39.1,-2.88,11.6,-2.53,12.2,1
39.1,-0.14,10.2,-4.41,11.1,1
39.1,1.42,9.25,-5.14,10.7,1
39.1,2.93,9.02,-4.18,10.4,1
39.1,4.15,9.03,-3.52,10.5,1
39.1,4.83,9.14,-3.29,10.9,1
39.1,4.64,9.36,-3.24,10.9,1
39.1,3.45,9.47,-2.79,10.5,1
39.1,1.89,9.8,-1.81,10.1,1
39.1,0.44,10.3,-0.932,10.3,1
39.2,-1.58,10.4,2.07,10.7,1
39.2,-2.98,10.1,5.19,11.7,1
39.2,-3.52,9.09,7.33,12.2,1
39.2,-2.96,7.55,7.87,11.3,1
39.2,-0.255,6.05,5.01,7.86,1
39.2,4.27,4.6,-1.28,6.41,1
39.2,6.7,3.26,-4.98,8.96,1
39.2,7.24,0.587,-3.8,8.2,1
39.2,6.54,-4.08,-1.14,7.79,1
39.2,6.26,-8.7,0.454,10.7,1
39.3,5.23,-13.9,2.21,15.0,1
39.3,2.54,-22.4,9.5,24.5,1
39.3,-1.56,-35.4,18.0,39.8,1
39.3,-4.46,-41.6,14.6,44.3,1
39.3,-3.82,-34.4,0.929,34.6,1
39.3,-4.43,-21.1,-8.3,23.1,1
39.3,-5.93,-9.9,-12.0,16.6,1
39.3,-6.17,-2.21,-14.3,15.7,1
39.3,-7.49,2.79,-13.6,15.8,1
39.3,-8.98,5.42,-11.7,15.7,1
39.4,-8.75,7.02,-9.09,14.4,1
39.4,-8.2,6.53,-5.14,11.7,1
39.4,-6.86,5.07,-1.31,8.63,1
39.4,-4.72,3.61,-1.5,6.13,1
39.4,-1.62,2.31,-1.11,3.03,1
39.4,1.51,0.357,-0.108,1.55,1
39.4,4.49,-2.01,1.8,5.24,1
39.4,7.5,-3.9,3.12,9.01,1
39.4,9.43,-4.55,4.06,11.2,1
39.4,8.71,-3.62,4.51,10.5,1
39.5,6.9,-1.33,4.02,8.09,1
39.5,5.22,1.57,3.06,6.25,1
39.5,3.52,4.05,2.18,5.79,1
39.5,1.69,5.52,1.29,5.91,1
39.5,0.205,6.17,0.504,6.19,1
39.5,-0.752,6.5,0.386,6.56,1
39.5,-1.39,6.57,0.709,6.76,1
39.5,-2.15,6.21,0.911,6.64,1
39.5,-3.06,5.43,0.528,6.25,1
39.5,-4.01,3.69,0.498,5.47,1
39.6,-5.08,0.765,1.03,5.24,1
39.6,-5.38,-1.59,2.43,6.11,1
39.6,-4.47,-2.95,2.98,6.13,1
39.6,-3.49,-3.98,2.16,5.72,1
39.6,-2.59,-4.46,0.846,5.23,1
39.6,-1.32,-4.2,0.0861,4.4,1
39.6,0.368,-2.79,0.0168,2.81,1
39.6,1.67,-1.17,-0.149,2.05,1
39.6,2.6,-0.307,-0.508,2.67,1
39.6,3.17,-0.256,-1.21,3.4,1
39.7,3.27,-0.579,-1.56,3.67,1
39.7,3.29,-0.454,-1.62,3.69,1
39.7,3.12,-0.0587,-1.3,3.38,1
39.7,2.98,0.547,-0.391,3.05,1
39.7,2.46,1.14,0.815,2.83,1
39.7,1.59,1.55,1.6,2.74,1
39.7,0.524,1.46,1.85,2.42,1
39.7,-0.633,0.79,1.61,1.9,1
39.7,-1.53,0.0157,1.12,1.89,1
39.7,-2.17,-0.469,0.976,2.43,1
39.8,-2.46,-0.679,1.22,2.83,1
39.8,-2.46,-0.743,1.31,2.89,1
39.8,-2.32,-0.819,1.16,2.72,1
39.8,-1.84,-0.811,0.71,2.14,1
39.8,-1.18,-0.708,0.34,1.42,1
39.8,-0.421,-0.474,0.348,0.723,1
39.8,0.233,-0.331,0.462,0.615,1
39.8,0.661,-0.322,0.564,0.927,1
39.8,0.894,-0.368,0.702,1.19,1
39.8,0.919,-0.41,0.812,1.29,1
39.9,0.761,-0.331,0.883,1.21,1
39.9,0.511,-0.15,0.822,0.979,1
39.9,0.203,0.0731,0.665,0.699,1
39.9,-0.118,0.25,0.551,0.617,1
39.9,-0.33,0.361,0.617,0.787,1
39.9,-0.391,0.396,0.82,0.991,1
39.9,-0.352,0.394,1.03,1.16,1
39.9,-0.227,0.33,1.19,1.26,1
39.9,0.0268,0.212,1.18,1.2,1
40.0,0.22,-0.0344,1.15,1.18,1
40.0,0.281,-0.273,1.28,1.34,1
40.0,0.363,-0.487,1.64,1.75,1
40.0,0.472,-0.644,2.13,2.27,1
40.0,0.551,-0.695,2.38,2.54,1
40.0,0.679,-0.56,2.31,2.47,1
40.0,0.83,-0.219,2.59,2.73,1
40.0,0.924,0.204,2.95,3.1,1
40.0,0.955,0.553,2.56,2.79,1
40.0,1.01,0.853,1.39,1.92,1
40.1,1.16,1.22,-0.356,1.72,1
40.1,1.33,1.86,-2.33,3.27,1
40.1,1.32,2.07,-2.83,3.74,1
40.1,0.797,2.25,-1.9,3.05,1
40.1,-0.278,2.32,0.236,2.35,1
40.1,-1.05,2.08,1.99,3.06,1
40.1,-1.39,1.82,2.75,3.58,1
40.1,-1.63,1.59,2.81,3.62,1
40.1,-1.72,1.58,1.82,2.96,1
40.1,-1.9,1.65,-0.353,2.54,1
40.2,-1.85,2.12,-1.41,3.14,1
40.2,-2.06,2.65,-0.786,3.44,1
40.2,-1.92,3.11,0.018,3.65,1
40.2,-1.22,3.11,0.398,3.36,1
40.2,-0.0619,3.03,-0.407,3.06,1
40.2,1.27,2.85,-1.29,3.38,1
40.2,2.47,2.37,-1.52,3.75,1
40.2,2.92,1.77,-1.07,3.58,1
40.2,2.99,1.2,0.0406,3.22,1
40.2,2.99,0.733,0.641,3.15,1
40.3,3.0,0.339,-0.123,3.02,1
40.3,2.08,0.195,-0.171,2.1,1
40.3,0.808,0.0233,0.381,0.893,1
40.3,-0.0696,-0.453,-0.154,0.484,1
40.3,-0.731,-0.889,-0.726,1.36,1
40.3,-1.44,-1.17,-0.714,1.98,1
40.3,-2.34,-1.88,0.381,3.02,1
40.3,-3.29,-3.06,1.08,4.63,1
40.3,-3.25,-4.87,0.869,5.92,1
40.3,-2.92,-6.55,-0.704,7.2,1
40.4,-2.13,-7.23,-1.03,7.61,1
40.4,-1.33,-7.68,-1.01,7.86,1
40.4,-1.02,-8.16,-0.414,8.23,1
40.4,-0.978,-8.69,-0.636,8.77,1
40.4,-1.01,-9.21,-0.838,9.31,1
40.4,-1.04,-10.0,-0.157,10.1,1
40.4,-1.11,-10.8,0.49,10.9,1
40.4,-1.31,-11.0,-0.236,11.0,1
40.4,-1.8,-10.3,-0.734,10.5,1
40.4,-2.38,-9.16,-0.29,9.47,1
40.5,-2.79,-8.01,0.121,8.48,1
40.5,-2.75,-7.28,-0.812,7.82,1
40.5,-2.63,-7.13,-2.49,8.0,1
40.5,-2.51,-7.53,-3.12,8.52,1
40.5,-2.12,-7.98,-2.45,8.61,1
40.5,-1.58,-8.2,-0.6,8.37,1
40.5,-0.303,-7.61,1.98,7.87,1
40.5,1.51,-5.86,3.84,7.17,1
40.5,2.78,-3.51,4.68,6.48,1
40.5,3.21,-1.28,4.66,5.8,1
40.6,4.0,1.57,2.53,4.99,1
40.6,4.14,3.8,0.987,5.71,1
40.6,3.64,5.42,0.647,6.56,1
40.6,3.12,7.11,0.679,7.79,1
40.6,2.58,8.52,0.907,8.95,1
40.6,2.13,9.72,1.12,10.0,1
40.6,1.58,10.6,1.59,10.8,1
40.6,1.25,11.3,2.31,11.6,1
40.6,0.891,11.9,3.19,12.4,1
40.6,0.319,12.2,4.32,12.9,1
40.7,-0.104,12.5,5.1,13.5,1
40.7,-0.673,12.6,5.23,13.7,1
40.7,-1.69,12.3,4.33,13.1,1
40.7,-2.07,11.1,2.68,11.6,1
40.7,-1.65,9.7,0.394,9.85,1
40.7,-0.78,8.96,-1.82,9.17,1
40.7,0.365,8.62,-3.37,9.26,1
40.7,1.36,8.24,-4.06,9.29,1
40.7,1.97,7.99,-4.39,9.33,1
40.7,2.16,8.19,-4.12,9.42,1
40.8,1.78,8.78,-2.95,9.43,1
40.8,1.65,9.44,-1.24,9.66,1
40.8,1.67,9.84,0.38,9.99,1
40.8,1.54,9.61,1.2,9.81,1
15.0,2.82,0.141,7.26,7.79,1
15.0,1.37,0.123,5.48,5.65,1
15.0,0.554,-0.16,3.28,3.33,1
15.1,-0.00582,-0.447,1.18,1.26,1
15.1,-0.381,-0.48,-0.551,0.824,1
15.1,-0.591,-0.441,-2.07,2.2,1
15.1,-0.7,-0.342,-3.32,3.41,1
15.1,-0.829,-0.283,-4.26,4.35,1
15.1,-1.06,-0.298,-4.85,4.97,1
15.1,-1.34,-0.349,-5.02,5.2,1
15.1,-1.64,-0.4,-4.88,5.16,1
15.1,-1.83,-0.395,-4.47,4.84,1
15.1,-1.79,-0.373,-3.96,4.36,1
15.2,-1.61,-0.29,-3.39,3.76,1
15.2,-1.28,-0.169,-2.7,3.0,1
15.2,-0.917,-0.0689,-1.9,2.11,1
15.2,-0.634,-0.0709,-1.03,1.21,1
15.2,-0.335,-0.0778,-0.268,0.436,1
15.2,-0.0721,-0.0872,0.268,0.291,1
15.2,0.12,-0.142,0.58,0.609,1
15.2,0.177,-0.132,0.672,0.707,1
15.2,0.0453,-0.147,0.571,0.591,1
15.2,-0.29,-0.211,0.356,0.505,1
15.3,-0.649,-0.295,0.235,0.75,1
15.3,-0.795,-0.36,0.203,0.896,1
15.3,-0.806,-0.389,0.256,0.931,1
15.3,-0.674,-0.373,0.4,0.868,1
15.3,-0.522,-0.317,0.595,0.853,1
15.3,-0.402,-0.228,0.739,0.871,1
15.3,-0.389,-0.234,0.785,0.907,1
15.3,-0.585,-0.358,0.705,0.984,1
15.3,-0.927,-0.436,0.521,1.15,1
15.3,-1.33,-0.356,0.409,1.44,1
15.4,-1.65,-0.182,0.494,1.73,1
15.4,-1.81,-0.15,0.676,1.94,1
15.4,-1.85,-0.228,0.712,1.99,1
15.4,-1.81,-0.201,0.624,1.93,1
15.4,-1.75,0.0128,0.639,1.86,1
15.4,-1.69,0.295,0.635,1.83,1
15.4,-1.61,0.468,0.466,1.74,1
15.4,-1.54,0.57,0.256,1.66,1
15.4,-1.43,0.784,0.206,1.64,1
15.4,-1.27,1.05,0.348,1.68,1
15.5,-1.09,1.11,0.543,1.65,1
15.5,-1.04,0.992,0.588,1.56,1
15.5,-1.03,0.885,0.684,1.52,1
15.5,-1.04,0.859,0.803,1.57,1
15.5,-0.966,0.841,0.866,1.55,1
15.5,-0.842,0.841,0.939,1.52,1
15.5,-0.77,0.784,0.989,1.48,1
15.5,-0.735,0.641,0.923,1.34,1
15.5,-0.765,0.487,0.704,1.15,1
15.5,-0.928,0.303,0.275,1.01,1
15.6,-1.16,0.122,-0.261,1.2,1
15.6,-1.34,0.105,-0.688,1.51,1
15.6,-1.44,0.115,-0.879,1.69,1
15.6,-1.42,0.0985,-0.867,1.67,1
15.6,-1.19,0.0895,-0.811,1.44,1
15.6,-0.815,0.115,-0.652,1.05,1
15.6,-0.528,0.0909,-0.59,0.797,1
15.6,-0.381,0.103,-0.716,0.818,1
15.6,-0.366,0.186,-0.747,0.853,1
15.6,-0.38,0.304,-0.524,0.715,1
15.7,-0.204,0.417,-0.155,0.49,1
15.7,0.124,0.502,0.198,0.554,1
15.7,0.519,0.569,0.578,0.963,1
15.7,0.785,0.627,0.998,1.42,1
15.7,0.877,0.683,1.31,1.72,1
15.7,0.835,0.715,1.41,1.78,1
15.7,0.765,0.648,1.38,1.7,1
15.7,0.705,0.579,1.3,1.59,1
15.7,0.78,0.632,1.27,1.62,1
15.7,0.958,0.75,1.24,1.73,1
15.8,1.21,0.844,1.21,1.91,1
15.8,1.54,0.791,1.18,2.09,1
15.8,1.78,0.591,1.12,2.18,1
15.8,1.75,0.264,0.956,2.01,1
15.8,1.49,-0.0505,0.719,1.65,1
15.8,1.05,-0.428,0.442,1.22,1
15.8,0.523,-0.86,0.153,1.02,1
15.8,-0.00583,-1.3,-0.208,1.31,1
15.8,-0.477,-1.63,-0.508,1.77,1
15.8,-0.827,-1.82,-0.739,2.13,1
15.9,-0.996,-1.87,-0.902,2.3,1
15.9,-0.96,-1.81,-0.984,2.27,1
15.9,-0.73,-1.68,-1.13,2.15,1
15.9,-0.41,-1.42,-1.29,1.96,1
15.9,-0.085,-1.08,-1.51,1.86,1
15.9,0.182,-0.694,-1.74,1.88,1
15.9,0.394,-0.299,-1.87,1.94,1
15.9,0.513,-0.0582,-2.02,2.08,1
15.9,0.58,0.106,-2.13,2.21,1
15.9,0.619,0.269,-2.1,2.2,1
16.0,0.625,0.334,-1.9,2.03,1
16.0,0.589,0.338,-1.71,1.84,1
16.0,0.502,0.291,-1.55,1.66,1
16.0,0.406,0.226,-1.37,1.45,1
16.0,0.314,0.241,-1.19,1.26,1
16.0,0.202,0.166,-1.02,1.06,1
16.0,0.0528,0.0382,-0.885,0.887,1
16.0,-0.18,-0.153,-0.803,0.837,1
16.0,-0.385,-0.35,-0.805,0.959,1
16.0,-0.556,-0.517,-0.897,1.18,1
16.1,-0.747,-0.736,-1.11,1.53,1
16.1,-1.0,-0.973,-1.46,2.02,1
16.1,-1.25,-1.19,-1.82,2.51,1
16.1,-1.44,-1.33,-2.15,2.91,1
16.1,-1.57,-1.45,-2.41,3.22,1
16.1,-1.57,-1.49,-2.63,3.41,1
16.1,-1.35,-1.44,-2.89,3.5,1
16.1,-1.16,-1.25,-3.05,3.49,1
16.1,-1.06,-1.06,-3.08,3.43,1
16.1,-0.902,-0.837,-2.91,3.16,1
16.2,-0.595,-0.668,-2.49,2.65,1
16.2,-0.369,-0.587,-1.77,1.9,1
16.2,-0.237,-0.522,-0.63,0.852,1
16.2,0.301,-0.216,0.862,0.938,1
16.2,1.59,0.212,2.57,3.03,1
16.2,3.5,0.665,4.13,5.45,1
16.2,5.51,1.61,5.04,7.64,1
16.2,6.54,3.11,6.23,9.55,1
16.2,7.08,4.3,8.46,11.8,1
16.2,8.15,4.33,10.4,13.9,1
16.3,9.62,3.19,11.2,15.1,1
16.3,10.3,1.82,10.3,14.7,1
16.3,9.93,1.54,7.69,12.7,1
16.3,8.75,2.07,3.88,9.79,1
16.3,7.03,2.82,0.255,7.58,1
16.3,4.93,3.76,-2.16,6.57,1
16.3,2.79,4.68,-3.26,6.35,1
16.3,1.01,5.02,-3.38,6.13,1
16.3,-0.218,4.53,-2.82,5.34,1
16.3,-0.815,3.86,-1.43,4.19,1
16.4,-0.608,3.54,0.66,3.65,1
16.4,0.18,3.32,2.69,4.28,1
16.4,1.11,3.07,4.55,5.6,1
16.4,1.76,2.53,5.63,6.42,1
16.4,1.39,1.65,5.13,5.56,1
16.4,-0.00586,0.854,3.71,3.81,1
16.4,-1.71,0.464,2.26,2.88,1
16.4,-3.22,-0.00895,0.807,3.32,1
16.4,-4.23,-0.61,-0.573,4.31,1
16.4,-4.76,-1.36,-1.78,5.26,1
16.5,-5.05,-2.02,-2.85,6.14,1
16.5,-5.11,-2.5,-3.72,6.8,1
16.5,-4.75,-2.82,-4.48,7.12,1
16.5,-3.9,-3.08,-5.13,7.15,1
16.5,-3.72,-3.52,-5.87,7.79,1
16.5,-3.4,-3.81,-6.76,8.47,1
16.5,-2.63,-3.63,-7.3,8.57,1
16.5,-1.41,-2.95,-7.19,7.9,1
16.5,0.222,-2.23,-6.4,6.78,1
16.5,1.59,-2.15,-5.63,6.23,1
16.6,2.42,-2.63,-5.24,6.34,1
16.6,2.74,-3.22,-5.14,6.65,1
16.6,2.47,-3.7,-5.24,6.87,1
16.6,1.63,-4.01,-5.01,6.62,1
16.6,0.324,-4.3,-3.78,5.73,1
16.6,-0.754,-4.47,-2.4,5.13,1
16.6,-1.14,-4.61,-1.14,4.88,1
16.6,-1.37,-4.82,-0.082,5.01,1
16.6,-1.6,-4.64,0.316,4.92,1
16.6,-1.66,-3.69,0.355,4.06,1
16.7,-1.95,-2.17,0.0378,2.92,1
16.7,-2.52,-0.558,-0.568,2.65,1
16.7,-3.08,0.99,-1.12,3.42,1
16.7,-3.31,2.15,-1.32,4.16,1
16.7,-2.85,2.48,-0.834,3.87,1
16.7,-1.65,2.19,0.0441,2.74,1
16.7,-0.112,1.81,1.34,2.25,1
16.7,1.21,1.21,3.22,3.64,1
16.7,2.14,0.525,5.0,5.47,1
16.7,2.47,-0.221,6.22,6.7,1
16.8,2.11,-0.928,6.67,7.05,1
16.8,1.26,-1.19,6.48,6.71,1
16.8,0.118,-0.964,5.9,5.97,1
16.8,-1.08,-0.654,5.09,5.24,1
16.8,-2.1,-0.274,4.28,4.78,1
16.8,-2.38,0.0393,3.89,4.56,1
16.8,-1.59,0.0344,3.84,4.16,1
16.8,-0.195,-0.164,3.59,3.6,1
16.8,0.99,-0.24,3.13,3.3,1
16.8,1.64,-0.169,2.58,3.07,1
16.9,1.7,-0.0523,1.84,2.5,1
16.9,1.17,-0.139,0.901,1.48,1
16.9,0.42,-0.354,-0.113,0.561,1
16.9,-0.237,-0.656,-1.21,1.4,1
16.9,-0.766,-0.921,-2.21,2.51,1
16.9,-1.17,-0.996,-2.98,3.35,1
16.9,-1.39,-0.866,-3.38,3.75,1
16.9,-1.38,-0.578,-3.33,3.65,1
16.9,-1.19,-0.383,-3.07,3.32,1
16.9,-0.828,-0.352,-2.74,2.88,1
17.0,-0.322,-0.382,-2.32,2.38,1
17.0,0.151,-0.387,-2.02,2.07,1
17.0,0.44,-0.319,-1.63,1.72,1
17.0,0.488,-0.24,-1.18,1.3,1
17.0,0.305,-0.289,-0.881,0.976,1
17.0,0.0442,-0.373,-0.756,0.844,1
17.0,-0.138,-0.439,-0.593,0.751,1
17.0,-0.182,-0.522,-0.248,0.606,1
17.0,-0.153,-0.567,0.0785,0.592,1
17.0,-0.168,-0.59,0.238,0.658,1
17.1,-0.235,-0.575,0.34,0.708,1
17.1,-0.234,-0.522,0.491,0.754,1
17.1,-0.165,-0.505,0.555,0.768,1
17.1,0.0101,-0.528,0.68,0.861,1
17.1,0.322,-0.591,0.877,1.11,1
17.1,0.461,-0.72,1.01,1.32,1
17.1,0.245,-0.724,1.12,1.36,1
17.1,-0.149,-0.688,1.03,1.25,1
17.1,-0.615,-0.708,0.568,1.1,1
17.1,-0.992,-0.79,-0.0417,1.27,1
17.2,-1.17,-0.705,-0.602,1.49,1
17.2,-1.15,-0.446,-0.962,1.56,1
17.2,-1.02,-0.186,-1.22,1.6,1
17.2,-0.904,0.0193,-1.42,1.68,1
17.2,-0.788,0.171,-1.52,1.72,1
17.2,-0.681,0.361,-1.5,1.68,1
17.2,-0.538,0.517,-1.26,1.47,1
17.2,-0.218,0.602,-0.961,1.15,1
17.2,0.0941,0.667,-0.723,0.988,1
17.2,0.296,0.755,-0.599,1.01,1
17.3,0.434,0.789,-0.418,0.993,1
17.3,0.5,0.763,-0.331,0.971,1
17.3,0.496,0.578,-0.334,0.831,1
17.3,0.466,0.422,-0.402,0.747,1
17.3,0.293,0.331,-0.455,0.634,1
17.3,0.0716,0.175,-0.415,0.456,1
17.3,-0.109,-0.027,-0.436,0.45,1
17.3,-0.246,-0.27,-0.543,0.654,1
17.3,-0.374,-0.51,-0.539,0.831,1
17.3,-0.481,-0.739,-0.535,1.03,1
17.4,-0.529,-0.969,-0.613,1.26,1
17.4,-0.587,-1.21,-0.738,1.54,1
17.4,-0.607,-1.39,-0.937,1.78,1
17.4,-0.625,-1.54,-1.24,2.07,1
17.4,-0.644,-1.65,-1.6,2.39,1
17.4,-0.623,-1.7,-1.92,2.64,1
17.4,-0.5,-1.66,-2.09,2.71,1
17.4,-0.387,-1.55,-2.16,2.69,1
17.4,-0.41,-1.57,-2.11,2.66,1
17.4,-0.545,-1.67,-1.97,2.64,1
17.5,-0.662,-1.76,-1.87,2.66,1
17.5,-0.749,-1.73,-1.82,2.62,1
17.5,-0.878,-1.67,-1.73,2.56,1
17.5,-1.07,-1.51,-1.5,2.38,1
17.5,-1.25,-1.17,-1.13,2.05,1
17.5,-1.27,-0.766,-0.541,1.58,1
17.5,-1.08,-0.442,0.148,1.18,1
17.5,-0.697,-0.219,0.833,1.11,1
17.5,-0.144,-0.0122,1.64,1.65,1
17.5,0.362,0.28,2.3,2.34,1
17.6,0.547,0.682,2.86,2.99,1
17.6,0.65,1.19,3.56,3.81,1
17.6,0.844,1.74,4.14,4.57,1
17.6,0.941,2.29,4.66,5.28,1
17.6,1.05,2.83,5.5,6.27,1
17.6,1.23,3.23,6.57,7.42,1
17.6,1.25,3.34,7.72,8.51,1
17.6,1.39,3.41,8.93,9.66,1
17.6,1.73,3.33,9.9,10.6,1
17.6,1.73,3.3,10.1,10.8,1
17.7,1.38,3.63,9.54,10.3,1
17.7,0.985,4.09,7.98,9.02,1
17.7,0.913,4.42,5.91,7.43,1
17.7,1.35,4.5,3.82,6.06,1
17.7,1.7,4.0,1.89,4.74,1
17.7,1.37,3.19,0.914,3.59,1
17.7,0.503,2.29,1.13,2.6,1
17.7,-0.488,1.06,1.93,2.26,1
17.7,-1.47,-0.534,2.88,3.27,1
17.7,-1.8,-2.0,3.63,4.52,1
17.8,-1.51,-3.25,3.42,4.95,1
17.8,-1.33,-4.33,2.42,5.13,1
17.8,-1.54,-5.17,0.939,5.47,1
17.8,-1.82,-5.59,-0.704,5.92,1
17.8,-2.2,-5.72,-2.46,6.6,1
17.8,-2.8,-5.76,-4.2,7.66,1
17.8,-3.59,-6.18,-5.6,9.08,1
17.8,-4.67,-7.16,-6.73,10.9,1
17.8,-5.99,-7.93,-7.73,12.6,1
17.8,-7.31,-6.83,-8.18,12.9,1
17.9,-7.19,-4.45,-7.61,11.4,1
17.9,-5.46,-3.26,-7.31,9.69,1
17.9,-3.17,-3.39,-6.93,8.34,1
17.9,-1.21,-3.39,-6.47,7.4,1
17.9,0.102,-3.03,-6.14,6.84,1
17.9,-0.0396,-2.92,-5.54,6.26,1
17.9,-0.103,-1.24,-4.45,4.62,1
17.9,-0.297,-0.609,-3.98,4.03,1
17.9,-0.393,-1.14,-4.38,4.55,1
17.9,-0.402,-1.77,-5.07,5.39,1
18.0,-0.483,-1.81,-5.61,5.92,1
18.0,-0.524,-1.45,-6.24,6.42,1
18.0,-0.408,-1.06,-6.81,6.91,1
18.0,0.0562,-0.517,-7.0,7.02,1
18.0,0.546,0.185,-6.7,6.72,1
18.0,0.548,0.646,-5.9,5.96,1
18.0,0.226,0.946,-4.73,4.83,1
18.0,0.125,1.27,-3.28,3.52,1
18.0,0.576,1.73,-2.58,3.17,1
18.0,0.522,1.91,-2.29,3.03,1
18.1,-0.875,2.06,-2.68,3.49,1
18.1,-3.27,1.77,-1.82,4.14,1
18.1,-4.36,1.5,0.942,4.71,1
18.1,-1.93,2.07,4.55,5.35,1
18.1,2.95,3.32,9.19,10.2,1
18.1,8.62,4.8,13.7,16.9,1
18.1,12.9,5.78,16.6,21.8,1
18.1,14.2,5.47,17.2,23.0,1
18.1,12.3,4.28,16.0,20.6,1
18.1,8.31,3.38,13.9,16.6,1
18.2,4.51,2.93,11.6,12.8,1
18.2,2.2,2.58,8.96,9.58,1
18.2,1.31,2.43,6.26,6.84,1
18.2,1.17,2.48,3.87,4.74,1
18.2,0.921,2.4,1.93,3.21,1
18.2,0.436,1.92,0.509,2.04,1
18.2,-0.181,1.22,-0.587,1.37,1
18.2,-0.688,0.583,-1.36,1.63,1
18.2,-0.892,0.231,-1.92,2.13,1
18.2,-0.785,-0.0834,-2.35,2.48,1
18.3,-0.582,-0.449,-2.72,2.81,1
18.3,-0.273,-0.643,-3.04,3.12,1
18.3,-0.117,-0.715,-3.29,3.36,1
18.3,-0.259,-0.93,-3.4,3.53,1
18.3,-0.669,-1.31,-3.56,3.86,1
18.3,-1.16,-1.7,-3.69,4.22,1
18.3,-1.56,-2.02,-3.6,4.41,1
18.3,-1.96,-2.27,-3.39,4.53,1
18.3,-2.3,-2.49,-3.13,4.62,1
18.3,-2.54,-2.69,-2.97,4.75,1
18.4,-2.56,-2.75,-2.93,4.76,1
18.4,-2.21,-2.35,-2.74,4.23,1
18.4,-1.83,-1.99,-2.41,3.62,1
18.4,-1.55,-2.06,-2.56,3.63,1
18.4,-1.22,-1.95,-2.93,3.73,1
18.4,-0.881,-1.48,-2.96,3.42,1
18.4,-0.316,-0.764,-2.91,3.02,1
18.4,0.423,0.0393,-2.49,2.53,1
18.4,1.2,0.647,-1.72,2.2,1
18.4,2.04,0.827,-0.746,2.32,1
18.5,2.74,0.59,0.28,2.82,1
18.5,3.06,0.174,1.21,3.3,1
18.5,2.96,-0.394,1.93,3.56,1
18.5,2.44,-0.906,2.24,3.43,1
18.5,1.59,-1.22,2.14,2.93,1
18.5,0.725,-1.34,1.71,2.29,1
18.5,7.05e-05,-1.23,1.15,1.69,1
18.5,-0.61,-1.08,0.618,1.39,1
18.5,-0.871,-0.829,0.205,1.22,1
18.5,-0.787,-0.513,-0.197,0.96,1
18.6,-0.593,-0.265,-0.521,0.832,1
18.6,-0.432,-0.0544,-0.618,0.756,1
18.6,-0.212,0.218,-0.62,0.69,1
18.6,0.0872,0.574,-0.676,0.891,1
18.6,0.198,0.793,-0.658,1.05,1
18.6,0.152,0.8,-0.573,0.996,1
18.6,0.0944,0.649,-0.558,0.861,1
18.6,0.049,0.497,-0.656,0.825,1
18.6,0.159,0.646,-0.574,0.878,1
18.6,0.32,0.814,-0.397,0.961,1
18.7,0.408,0.749,-0.448,0.964,1
18.7,0.446,0.587,-0.618,0.962,1
18.7,0.38,0.463,-0.69,0.914,1
18.7,0.331,0.438,-0.681,0.875,1
18.7,0.316,0.506,-0.608,0.851,1
18.7,0.294,0.468,-0.535,0.769,1
18.7,0.224,0.31,-0.411,0.561,1
18.7,0.213,0.213,-0.243,0.387,1
18.7,0.342,0.257,0.0575,0.432,1
18.7,0.38,0.221,0.273,0.517,1
18.8,0.262,0.0323,0.347,0.436,1
18.8,0.127,-0.096,0.39,0.421,1
18.8,0.0396,-0.0788,0.419,0.428,1
18.8,-0.153,-0.148,0.317,0.382,1
18.8,-0.423,-0.284,0.186,0.542,1
18.8,-0.579,-0.285,0.039,0.647,1
18.8,-0.576,-0.228,-0.0851,0.626,1
18.8,-0.532,-0.197,-0.249,0.62,1
18.8,-0.441,-0.214,-0.435,0.655,1
18.8,-0.342,-0.243,-0.61,0.741,1
18.9,-0.161,-0.192,-0.697,0.74,1
18.9,0.121,-0.113,-0.787,0.805,1
18.9,0.268,-0.168,-0.983,1.03,1
18.9,0.23,-0.304,-1.14,1.2,1
18.9,0.0977,-0.427,-1.28,1.35,1
18.9,-0.0188,-0.448,-1.29,1.36,1
18.9,-0.0516,-0.491,-1.27,1.36,1
18.9,-0.127,-0.657,-1.3,1.46,1
18.9,-0.232,-0.865,-1.43,1.69,1
18.9,-0.36,-1.04,-1.52,1.88,1
19.0,-0.476,-1.18,-1.61,2.05,1
19.0,-0.539,-1.33,-1.72,2.24,1
19.0,-0.561,-1.47,-1.83,2.41,1
19.0,-0.611,-1.61,-1.92,2.58,1
19.0,-0.694,-1.77,-2.02,2.77,1
19.0,-0.776,-1.9,-2.21,3.02,1
19.0,-0.832,-2.0,-2.59,3.38,1
19.0,-0.807,-1.97,-2.95,3.64,1
19.0,-0.769,-1.83,-3.17,3.74,1
19.0,-0.728,-1.68,-3.39,3.85,1
19.1,-0.605,-1.56,-3.61,3.98,1
19.1,-0.446,-1.38,-3.6,3.88,1
19.1,-0.278,-1.05,-3.14,3.32,1
19.1,0.0127,-0.637,-2.45,2.54,1
19.1,0.53,-0.303,-1.46,1.58,1
19.1,1.25,-0.0304,-0.0766,1.25,1
19.1,2.0,0.339,1.55,2.55,1
19.1,2.74,1.01,3.6,4.64,1
19.1,3.35,1.95,6.01,7.15,1
19.1,3.81,2.75,8.39,9.62,1
19.2,4.4,3.12,10.2,11.5,1
19.2,4.82,3.18,11.4,12.8,1
19.2,4.85,3.63,12.1,13.5,1
19.2,4.64,4.69,12.0,13.7,1
19.2,4.42,5.93,11.2,13.4,1
19.2,4.4,6.53,10.0,12.8,1
19.2,4.33,6.54,8.74,11.7,1
19.2,4.11,6.63,7.26,10.7,1
19.2,3.61,6.45,5.73,9.35,1
19.2,2.97,5.86,3.97,7.68,1
19.3,2.31,5.29,2.27,6.2,1
19.3,1.66,4.54,0.861,4.91,1
19.3,0.905,3.37,0.0541,3.49,1
19.3,0.0304,2.01,0.14,2.01,1
19.3,-0.555,0.336,0.861,1.08,1
19.3,-0.74,-1.2,1.62,2.15,1
19.3,-0.901,-2.34,2.02,3.22,1
19.3,-1.44,-3.38,2.13,4.25,1
19.3,-2.34,-4.23,1.25,4.99,1
19.3,-3.28,-4.71,-0.46,5.76,1
19.4,-4.11,-4.91,-2.5,6.87,1
19.4,-4.68,-5.19,-4.48,8.3,1
19.4,-4.99,-5.58,-6.14,9.68,1
19.4,-5.2,-5.94,-7.15,10.7,1
19.4,-5.43,-6.4,-7.49,11.3,1
19.4,-5.42,-6.49,-7.6,11.4,1
19.4,-5.25,-6.66,-7.61,11.4,1
19.4,-5.09,-6.72,-7.75,11.5,1
19.4,-4.91,-6.75,-7.98,11.5,1
19.4,-4.66,-6.78,-8.27,11.7,1
19.5,-4.32,-6.69,-8.5,11.6,1
19.5,-4.07,-6.46,-8.71,11.6,1
19.5,-3.77,-6.02,-8.81,11.3,1
19.5,-3.1,-5.28,-8.59,10.5,1
19.5,-2.25,-4.47,-7.98,9.41,1
19.5,-1.36,-3.74,-7.02,8.07,1
19.5,-0.661,-3.04,-5.57,6.39,1
19.5,-0.277,-2.28,-3.98,4.59,1
19.5,-0.0478,-1.42,-2.54,2.91,1
19.5,0.309,-0.379,-1.18,1.27,1
19.6,0.657,0.757,-0.104,1.01,1
19.6,0.801,1.8,0.812,2.13,1
19.6,1.08,2.83,1.74,3.49,1
19.6,1.63,3.97,2.28,4.86,1
19.6,2.46,4.98,2.39,6.05,1
19.6,3.49,5.3,2.58,6.85,1
19.6,4.81,5.41,3.27,7.94,1
19.6,6.46,5.55,4.81,9.78,1
19.6,8.04,5.44,7.02,12.0,1
19.6,9.14,4.74,9.17,13.8,1
19.7,9.42,3.67,10.9,14.8,1
19.7,8.27,2.49,11.6,14.5,1
19.7,6.03,1.58,10.8,12.5,1
19.7,3.48,1.43,8.72,9.49,1
19.7,1.23,1.59,6.14,6.46,1
19.7,-0.354,1.53,3.53,3.86,1
19.7,-1.2,1.51,1.42,2.4,1
19.7,-1.41,1.56,0.101,2.1,1
19.7,-1.09,1.43,-0.507,1.87,1
19.7,-0.694,1.08,-0.747,1.49,1
19.8,-0.338,0.69,-1.03,1.28,1
19.8,-0.0837,0.578,-1.57,1.67,1
19.8,-0.136,0.569,-2.1,2.18,1
19.8,-0.451,0.345,-2.49,2.55,1
19.8,-0.9,-0.0607,-2.95,3.09,1
19.8,-1.38,-0.397,-3.41,3.7,1
19.8,-1.8,-0.587,-3.63,4.09,1
19.8,-2.15,-0.68,-3.69,4.32,1
19.8,-2.32,-0.792,-3.56,4.32,1
19.8,-2.27,-0.89,-3.24,4.06,1
19.9,-1.95,-0.843,-2.76,3.48,1
19.9,-1.58,-0.723,-2.23,2.83,1
19.9,-1.22,-0.658,-1.7,2.2,1
19.9,-0.868,-0.536,-1.24,1.6,1
19.9,-0.365,-0.323,-0.798,0.935,1
19.9,0.243,-0.0351,-0.287,0.378,1
19.9,0.686,0.0677,0.0763,0.694,1
19.9,0.947,-0.0584,0.253,0.982,1
19.9,1.04,-0.183,0.371,1.12,1
19.9,1.05,-0.2,0.515,1.19,1
20.0,0.95,-0.206,0.721,1.21,1
20.0,0.814,-0.25,0.924,1.26,1
20.0,0.701,-0.296,1.05,1.3,1
20.0,0.601,-0.319,0.922,1.15,1
20.0,0.477,-0.391,0.631,0.882,1
20.0,0.282,-0.453,0.28,0.603,1
20.0,0.0449,-0.452,-0.0885,0.463,1
15.8,-3.37,10.2,-4.0,11.5,1
15.8,-2.35,9.79,-3.97,10.8,1
15.8,-1.45,9.56,-3.84,10.4,1
15.8,0.133,9.7,-4.36,10.6,1
15.8,1.48,9.8,-4.44,10.9,1
15.8,2.18,9.92,-3.98,10.9,1
15.8,2.59,10.1,-2.57,10.7,1
15.8,3.18,10.2,-0.878,10.7,1
15.8,3.64,9.77,0.0246,10.4,1
15.9,3.41,8.94,-0.197,9.58,1
15.9,2.63,8.12,-0.161,8.53,1
15.9,1.55,7.36,0.333,7.53,1
15.9,0.518,6.76,0.976,6.85,1
15.9,-0.599,6.53,2.19,6.91,1
15.9,-1.43,6.53,2.19,7.03,1
15.9,-1.24,5.76,-2.61,6.45,1
15.9,-0.291,4.52,-8.72,9.82,1
15.9,0.196,3.17,-6.61,7.33,1
15.9,-0.612,0.508,-1.52,1.72,1
16.0,-1.4,-1.24,-2.62,3.22,1
16.0,-1.41,-2.81,-0.661,3.21,1
16.0,-4.62,-9.67,10.1,14.7,1
16.0,-12.3,-25.3,22.7,36.1,1
16.0,-11.1,-40.1,13.4,43.7,1
16.0,-0.619,-42.2,-6.73,42.8,1
16.0,9.83,-28.8,-0.93,30.4,1
16.0,11.7,-20.3,4.36,23.8,1
16.0,5.62,-12.2,-1.17,13.5,1
16.0,-0.446,-5.38,-2.74,6.05,1
16.1,-4.58,-1.26,-6.41,7.98,1
16.1,-5.13,3.82,-9.6,11.5,1
16.1,-5.46,7.16,-9.2,12.9,1
16.1,-6.61,7.02,-5.92,11.3,1
16.1,-6.65,7.13,-5.18,11.0,1
16.1,-6.08,6.91,-4.89,10.4,1
16.1,-6.76,4.7,-2.34,8.56,1
16.1,-5.65,1.81,-1.0,6.02,1
16.1,-2.23,-0.422,-0.0178,2.27,1
16.1,1.6,-2.01,0.778,2.69,1
16.2,5.7,-2.23,-0.393,6.13,1
16.2,7.38,-1.01,0.0905,7.45,1
16.2,7.65,0.651,2.72,8.15,1
16.2,7.3,2.27,4.75,9.0,1
16.2,6.18,3.82,5.71,9.24,1
16.2,4.7,5.01,5.44,8.77,1
16.2,3.02,5.24,4.0,7.25,1
16.2,0.989,4.27,2.19,4.9,1
16.2,-0.938,2.79,1.91,3.51,1
16.2,-1.76,1.71,1.74,3.0,1
16.3,-2.84,0.209,1.66,3.29,1
16.3,-3.84,-1.55,2.0,4.6,1
16.3,-4.83,-3.37,1.99,6.22,1
16.3,-5.31,-4.64,1.56,7.22,1
16.3,-4.31,-4.19,1.05,6.1,1
16.3,-1.86,-1.79,1.45,2.96,1
16.3,0.318,-0.0416,1.36,1.4,1
16.3,1.96,0.463,1.16,2.32,1
16.3,3.25,0.499,1.56,3.64,1
16.3,3.93,0.379,2.15,4.5,1
16.4,4.24,0.163,2.31,4.84,1
16.4,3.99,-0.135,2.37,4.64,1
16.4,3.48,-0.297,2.15,4.11,1
16.4,2.79,-0.29,1.57,3.21,1
16.4,1.82,-0.243,1.09,2.13,1
16.4,0.834,-0.125,0.709,1.1,1
16.4,-0.176,-0.0862,0.44,0.482,1
16.4,-0.672,0.271,0.251,0.767,1
16.4,-1.17,0.698,0.754,1.56,1
16.4,-1.43,0.983,0.529,1.82,1
16.5,-1.4,1.27,-0.59,1.98,1
16.5,-1.33,1.57,-1.4,2.49,1
16.5,-1.47,1.8,-1.4,2.71,1
16.5,-1.48,1.78,-1.51,2.76,1
16.5,-1.69,1.78,-1.18,2.72,1
16.5,-1.96,1.72,-0.549,2.67,1
16.5,-2.03,1.82,-0.291,2.74,1
16.5,-1.9,1.98,-0.224,2.75,1
16.5,-1.73,1.97,-0.332,2.64,1
16.5,-1.2,2.02,-1.03,2.56,1
16.6,-0.617,2.23,-1.74,2.89,1
16.6,-0.143,2.57,-1.1,2.8,1
16.6,0.229,2.6,0.396,2.64,1
16.6,0.419,2.28,1.4,2.71,1
16.6,0.661,1.82,2.02,2.8,1
16.6,0.701,1.28,2.59,2.98,1
16.6,0.633,0.638,2.53,2.69,1
16.6,0.708,0.176,2.25,2.36,1
16.6,0.807,-0.114,1.93,2.09,1
16.6,0.776,-0.376,1.81,2.0,1
16.7,0.456,-0.742,1.86,2.05,1
16.7,0.0228,-1.34,1.62,2.11,1
16.7,-0.41,-1.81,0.982,2.1,1
16.7,-0.547,-1.88,-0.32,1.99,1
16.7,-0.262,-1.7,-1.73,2.44,1
16.7,-0.268,-1.61,-2.76,3.21,1
16.7,-0.897,-1.93,-2.91,3.6,1
16.7,-1.45,-2.61,-3.56,4.65,1
16.7,-2.02,-3.88,-3.28,5.47,1
16.7,-1.88,-4.99,-3.04,6.14,1
16.8,-3.52,-8.66,-2.34,9.64,1
16.8,-4.97,-13.1,0.572,14.0,1
16.8,-4.91,-16.6,0.741,17.3,1
16.8,-4.27,-18.8,0.573,19.3,1
16.8,-3.1,-18.1,0.887,18.4,1
16.8,-2.34,-15.3,1.03,15.5,1
16.8,-2.33,-12.0,1.83,12.3,1
16.8,-2.52,-8.91,2.17,9.51,1
16.8,-2.6,-6.44,1.51,7.11,1
16.8,-2.9,-4.5,1.19,5.48,1
16.9,-3.24,-2.89,1.33,4.54,1
16.9,-3.2,-1.52,1.06,3.7,1
16.9,-2.4,0.528,0.37,2.49,1
16.9,-1.2,2.57,-0.00818,2.83,1
16.9,0.0422,4.11,0.278,4.12,1
16.9,1.27,5.42,1.63,5.8,1
16.9,2.39,6.34,2.33,7.17,1
16.9,3.78,7.28,2.37,8.53,1
16.9,5.19,7.99,1.9,9.72,1
16.9,6.45,8.75,1.23,10.9,1
17.0,7.02,9.48,0.811,11.8,1
17.0,6.81,10.3,1.04,12.4,1
17.0,5.62,10.8,1.75,12.3,1
17.0,4.07,11.0,2.05,11.9,1
17.0,2.48,11.4,2.01,11.9,1
17.0,0.765,11.7,1.67,11.9,1
17.0,-0.512,11.7,0.64,11.7,1
17.0,-1.02,11.3,-0.749,11.4,1
17.0,-0.762,10.7,-1.71,10.9,1
17.0,-0.394,10.3,-2.41,10.6,1
17.1,-0.166,9.67,-2.84,10.1,1
17.1,0.0873,8.98,-2.97,9.46,1
17.1,0.453,8.72,-2.64,9.12,1
17.1,0.865,8.78,-1.62,8.97,1
17.1,1.32,8.74,-0.24,8.84,1
17.1,1.5,8.44,0.773,8.6,1
17.1,1.24,7.91,1.43,8.13,1
17.1,0.776,7.49,2.48,7.93,1
17.1,0.155,7.08,4.49,8.39,1
17.1,-0.922,6.37,7.81,10.1,1
17.2,-1.37,5.2,10.7,11.9,1
17.2,-1.2,3.61,2.72,4.68,1
17.2,2.97,2.6,-10.6,11.3,1
17.2,5.27,0.844,-10.5,11.8,1
17.2,4.31,-0.756,-4.37,6.18,1
17.2,-0.239,-4.11,-1.57,4.41,1
17.2,-6.34,-10.6,1.04,12.4,1
17.2,-12.9,-22.8,10.7,28.3,1
17.2,-22.6,-41.7,18.4,50.9,1
17.2,-8.79,-40.5,10.8,42.8,1
17.3,10.1,-21.7,1.98,24.0,1
17.3,10.6,-11.3,-5.8,16.5,1
17.3,3.82,-7.57,-11.8,14.5,1
17.3,0.178,-2.38,-10.2,10.5,1
17.3,-1.99,2.1,-7.82,8.34,1
17.3,-4.56,4.45,-7.7,10.0,1
17.3,-6.74,4.83,-8.43,11.8,1
17.3,-7.22,5.83,-6.84,11.5,1
17.3,-6.32,4.55,-3.59,8.57,1
17.3,-3.91,1.48,-3.13,5.22,1
17.4,-1.97,-0.796,-1.34,2.52,1
17.4,0.309,-2.95,1.44,3.29,1
17.4,1.53,-5.21,2.8,6.11,1
17.4,2.23,-6.11,3.14,7.23,1
17.4,2.78,-4.77,3.8,6.7,1
17.4,3.08,-2.13,3.35,5.03,1
17.4,3.91,0.591,2.04,4.45,1
17.4,4.33,3.04,1.1,5.41,1
17.4,3.92,4.58,0.226,6.04,1
17.4,3.65,5.68,-0.157,6.75,1
17.5,3.26,7.09,0.277,7.81,1
17.5,2.26,6.91,0.628,7.3,1
17.5,1.69,6.36,0.817,6.63,1
17.5,1.26,5.22,0.54,5.39,1
17.5,0.909,3.43,0.353,3.56,1
17.5,0.369,1.38,0.841,1.66,1
17.5,-0.284,-0.254,1.82,1.86,1
17.5,-1.15,-1.51,2.69,3.29,1
17.5,-1.73,-2.15,3.25,4.26,1
17.5,-2.51,-3.68,2.72,5.22,1
17.6,-2.59,-4.24,2.22,5.44,1
17.6,-1.83,-3.48,1.9,4.37,1
17.6,-0.867,-1.69,1.91,2.69,1
17.6,-0.634,-0.345,1.92,2.05,1
17.6,-0.888,0.201,1.84,2.05,1
17.6,-0.728,0.683,1.58,1.87,1
17.6,0.0337,0.983,0.962,1.38,1
17.6,0.841,1.06,0.226,1.37,1
17.6,1.36,1.03,0.102,1.71,1
17.6,1.55,0.81,0.122,1.76,1
17.7,1.85,0.34,-0.111,1.89,1
17.7,2.04,-0.181,-0.362,2.08,1
17.7,2.03,-0.581,-0.548,2.18,1
17.7,1.58,-0.753,-0.526,1.83,1
17.7,0.877,-0.582,-0.25,1.08,1
17.7,0.17,-0.367,-0.0829,0.413,1
17.7,-0.349,-0.145,0.288,0.475,1
17.7,-0.761,0.157,1.31,1.52,1
17.7,-0.914,0.349,1.85,2.09,1
17.7,-0.533,0.468,1.23,1.42,1
17.8,-0.245,0.639,1.35,1.51,1
17.8,-0.295,0.819,1.98,2.16,1
17.8,-0.444,0.927,2.27,2.49,1
17.8,-0.36,1.05,2.53,2.77,1
17.8,-0.0309,1.18,2.7,2.95,1
17.8,0.524,1.29,2.95,3.27,1
17.8,1.36,1.19,2.59,3.16,1
17.8,2.23,0.93,1.49,2.84,1
17.8,2.6,0.719,0.975,2.87,1
17.8,2.43,0.668,0.499,2.57,1
17.9,1.89,0.69,0.106,2.01,1
17.9,1.23,0.747,0.264,1.47,1
17.9,0.855,1.35,0.279,1.62,1
17.9,1.14,1.92,-0.532,2.29,1
17.9,1.4,2.41,-1.51,3.17,1
17.9,1.2,2.8,-1.66,3.47,1
17.9,0.617,2.79,-1.54,3.25,1
17.9,0.0587,2.63,-1.51,3.03,1
17.9,0.442,2.12,-1.92,2.9,1
17.9,0.693,1.46,-2.33,2.83,1
18.0,0.705,1.02,-2.38,2.68,1
18.0,0.453,0.648,-2.55,2.67,1
18.0,0.153,0.354,-2.72,2.75,1
18.0,-0.0987,0.0695,-2.52,2.53,1
18.0,-0.723,-0.407,-1.27,1.51,1
18.0,-1.3,-1.47,-1.28,2.34,1
18.0,-1.49,-2.67,-1.66,3.48,1
18.0,-3.45,-4.46,-1.07,5.74,1
18.0,-4.18,-5.97,-1.73,7.49,1
18.0,-4.18,-7.04,-2.25,8.5,1
18.1,-4.89,-8.26,-0.848,9.64,1
18.1,-5.12,-9.65,0.0375,10.9,1
18.1,-4.33,-10.9,-0.414,11.7,1
18.1,-3.41,-11.5,-1.07,12.1,1
18.1,-2.62,-11.3,-1.46,11.7,1
18.1,-1.82,-10.7,-1.89,11.0,1
18.1,-1.3,-10.4,-1.76,10.6,1
18.1,-1.02,-10.5,-1.84,10.7,1
18.1,-0.846,-10.5,-2.35,10.7,1
18.1,-1.01,-9.9,-2.35,10.2,1
18.2,-1.56,-8.85,-1.98,9.2,1
18.2,-2.25,-7.41,-1.06,7.81,1
18.2,-2.79,-5.65,0.0304,6.3,1
18.2,-3.25,-4.17,0.532,5.31,1
18.2,-2.42,-2.13,1.17,3.43,1
18.2,-1.42,-0.49,1.91,2.43,1
18.2,-0.0206,0.831,2.14,2.29,1
18.2,1.52,2.26,2.25,3.53,1
18.2,2.64,3.79,2.84,5.43,1
18.2,3.16,5.25,3.56,7.09,1
18.3,3.29,6.94,3.68,8.52,1
18.3,3.45,8.51,3.37,9.79,1
18.3,3.76,9.76,3.26,11.0,1
18.3,3.77,10.4,4.11,11.8,1
18.3,3.66,11.4,6.1,13.5,1
18.3,2.62,12.5,7.51,14.8,1
18.3,1.28,12.8,6.75,14.6,1
18.3,0.28,12.0,3.7,12.6,1
18.3,0.524,10.5,0.344,10.5,1
18.3,1.44,9.57,-1.36,9.78,1
18.4,2.29,9.05,-2.27,9.6,1
18.4,2.64,8.65,-2.55,9.39,1
18.4,2.63,8.52,-2.47,9.25,1
18.4,2.3,8.75,-2.14,9.3,1
18.4,1.58,8.9,-1.35,9.14,1
18.4,0.635,9.23,-0.621,9.27,1
18.4,-0.272,9.87,-0.177,9.87,1
18.4,-0.532,10.2,0.539,10.2,1
18.4,-0.275,9.8,1.12,9.87,1
18.4,-0.0454,9.11,1.71,9.27,1
18.5,0.274,8.21,1.96,8.45,1
18.5,0.556,7.15,1.81,7.4,1
18.5,0.894,5.89,0.955,6.03,1
18.5,2.14,4.91,-1.71,5.62,1
18.5,2.75,3.17,-3.4,5.4,1
18.5,1.94,0.426,-2.06,2.86,1
18.5,0.465,-2.83,-1.7,3.33,1
18.5,-1.43,-7.58,-1.58,7.88,1
18.5,-5.16,-14.9,4.69,16.4,1
18.5,-12.2,-28.1,15.6,34.3,1
18.6,-12.9,-41.4,19.9,47.7,1
18.6,2.78,-32.9,12.1,35.1,1
18.6,11.4,-18.6,2.46,21.9,1
18.6,9.06,-11.1,-7.01,16.0,1
18.6,3.71,-5.66,-10.6,12.6,1
18.6,0.339,-0.359,-9.02,9.03,1
18.6,-1.09,4.62,-8.19,9.46,1
18.6,-4.51,6.36,-9.96,12.7,1
18.6,-8.05,4.43,-10.4,13.8,1
18.6,-10.2,2.1,-8.76,13.6,1
18.7,-10.1,0.894,-5.11,11.4,1
18.7,-6.51,-0.7,-2.43,6.98,1
18.7,-3.86,-2.13,-1.14,4.55,1
18.7,-0.487,-2.58,0.742,2.73,1
18.7,3.18,-3.32,0.347,4.61,1
18.7,3.75,-3.91,1.53,5.63,1
18.7,3.49,-2.96,5.11,6.85,1
18.7,3.64,-1.24,4.5,5.92,1
18.7,3.47,0.824,3.01,4.66,1
18.7,3.27,2.94,1.96,4.81,1
18.8,2.88,4.77,0.651,5.61,1
18.8,2.26,6.4,0.0824,6.79,1
18.8,1.27,7.05,0.437,7.18,1
18.8,0.441,7.54,0.861,7.6,1
18.8,-1.46,5.72,0.932,5.98,1
18.8,-2.71,3.02,0.759,4.13,1
18.8,-3.15,0.421,0.907,3.31,1
18.8,-2.59,-1.21,1.39,3.18,1
18.8,-1.7,-2.38,1.43,3.25,1
18.8,-1.18,-3.72,1.98,4.38,1
18.9,-0.254,-3.84,2.56,4.62,1
18.9,0.735,-2.81,3.0,4.17,1
18.9,1.49,-1.01,3.26,3.72,1
18.9,1.64,0.513,2.92,3.38,1
18.9,1.48,1.1,2.06,2.76,1
18.9,1.25,1.12,1.5,2.25,1
18.9,1.01,0.8,1.16,1.73,1
18.9,0.676,0.461,0.981,1.28,1
18.9,0.458,0.205,0.983,1.1,1
18.9,0.369,0.0734,0.974,1.04,1
19.0,0.444,0.00625,0.906,1.01,1
19.0,0.506,-0.0265,0.842,0.983,1
19.0,0.505,0.0784,0.833,0.977,1
19.0,0.543,0.237,0.904,1.08,1
19.0,0.53,0.381,1.01,1.2,1
19.0,0.48,0.454,1.03,1.22,1
19.0,0.382,0.444,0.929,1.1,1
19.0,0.151,0.367,0.828,0.918,1
19.0,-0.176,0.307,0.852,0.922,1
19.0,-0.391,0.495,0.553,0.839,1
19.1,-0.357,0.876,-0.0908,0.95,1
19.1,-0.432,1.25,-0.122,1.33,1
19.1,-0.793,1.56,0.182,1.76,1
19.1,-1.14,1.95,0.109,2.26,1
19.1,-1.3,2.39,-0.509,2.77,1
19.1,-1.61,2.86,-0.892,3.4,1
19.1,-2.12,3.65,-0.6,4.26,1
19.1,-2.78,4.32,0.257,5.14,1
19.1,-3.41,4.54,1.25,5.81,1
19.1,-2.89,4.13,0.804,5.1,1
19.2,-3.61,3.63,1.74,5.41,1
19.2,-2.4,3.03,2.14,4.42,1
19.2,-0.0932,1.79,1.26,2.19,1
19.2,1.33,0.296,0.5,1.45,1
19.2,1.85,-0.948,1.02,2.32,1
19.2,1.51,-1.69,1.5,2.72,1
19.2,1.7,-2.02,-0.169,2.64,1
19.2,1.32,-1.77,-0.518,2.27,1
19.2,1.18,-1.36,0.144,1.81,1
19.2,1.52,-1.19,0.287,1.96,1
19.3,2.69,-0.836,-0.851,2.95,1
19.3,3.73,-0.496,-1.79,4.16,1
19.3,3.63,-0.54,-2.47,4.42,1
19.3,2.47,-0.899,-2.48,3.62,1
19.3,0.889,-1.82,-1.66,2.62,1
19.3,-0.163,-3.75,-1.02,3.89,1
19.3,-0.303,-6.65,-1.46,6.82,1
19.3,-2.74,-11.5,-0.532,11.9,1
19.3,-4.49,-16.6,-0.245,17.2,1
19.3,-4.67,-19.9,0.692,20.5,1
19.4,-4.48,-19.3,1.64,19.8,1
19.4,-4.85,-16.3,0.267,17.0,1
19.4,-5.16,-13.0,-1.62,14.1,1
19.4,-5.12,-10.3,-2.34,11.7,1
19.4,-5.36,-8.17,-2.52,10.1,1
19.4,-5.87,-6.83,-2.09,9.25,1
19.4,-5.9,-5.93,-1.33,8.47,1
19.4,-5.35,-5.16,-0.274,7.44,1
19.4,-3.53,-3.76,1.05,5.26,1
19.4,-0.943,-1.15,2.2,2.66,1
19.5,0.844,0.416,3.3,3.43,1
19.5,2.78,1.86,3.97,5.2,1
19.5,4.54,3.16,3.93,6.78,1
19.5,5.86,4.63,3.59,8.29,1
19.5,6.33,6.14,3.08,9.34,1
19.5,5.56,7.52,2.31,9.63,1
19.5,4.31,8.74,1.65,9.88,1
19.5,3.12,9.84,1.82,10.5,1
19.5,1.7,10.5,2.8,11.0,1
19.5,0.28,10.9,3.83,11.5,1
19.6,-0.71,11.4,4.78,12.4,1
19.6,-1.9,11.8,4.43,12.7,1
19.6,-3.19,12.0,1.98,12.6,1
19.6,-3.32,12.7,-0.47,13.1,1
19.6,-1.91,12.6,-1.73,12.8,1
19.6,-0.272,11.8,-2.73,12.1,1
19.6,1.39,11.4,-3.74,12.1,1
19.6,2.92,11.0,-4.12,12.1,1
19.6,3.97,10.5,-3.87,11.9,1
19.6,4.31,10.0,-3.24,11.4,1
19.7,4.07,9.46,-2.1,10.5,1
19.7,3.76,8.91,-0.633,9.69,1
19.7,3.25,8.37,0.747,9.01,1
19.7,2.85,7.91,1.07,8.48,1
19.7,2.4,7.68,1.51,8.19,1
19.7,1.61,7.11,2.49,7.71,1
19.7,0.553,6.58,4.43,7.95,1
19.7,-0.762,5.88,7.79,9.79,1
19.7,-2.44,4.62,9.13,10.5,1
19.7,-0.983,3.38,0.841,3.62,1
19.8,3.03,3.09,-9.7,10.6,1
19.8,3.75,1.45,-8.23,9.16,1
19.8,2.25,-0.353,-3.24,3.96,1
19.8,-1.65,-4.94,0.00785,5.21,1
19.8,-9.07,-13.2,9.45,18.6,1
19.8,-23.2,-35.9,27.3,50.7,1
19.8,-18.6,-49.4,16.3,55.3,1
19.8,-0.455,-36.4,1.84,36.4,1
19.8,6.47,-20.6,-3.02,21.8,1
19.8,2.43,-12.5,-12.2,17.6,1
19.9,-1.45,-6.4,-14.7,16.1,1
19.9,-2.53,0.626,-12.7,13.0,1
19.9,-3.53,5.39,-10.9,12.7,1
19.9,-5.02,8.76,-7.99,12.9,1
19.9,-5.51,9.58,-5.98,12.6,1
19.9,-3.56,6.56,-4.26,8.6,1
19.9,-0.728,3.02,-2.85,4.21,1
19.9,1.98,-0.729,-0.657,2.21,1
19.9,5.51,-3.17,1.0,6.44,1
19.9,7.53,-5.0,3.79,9.8,1
20.0,7.83,-6.14,4.07,10.8,1
20.0,8.1,-5.87,2.88,10.4,1
20.0,7.28,-4.0,2.01,8.54,1
20.0,5.08,-1.43,2.36,5.79,1
20.0,2.92,1.38,2.22,3.92,1
20.0,1.59,3.45,1.35,4.03,1
20.0,0.816,4.73,0.447,4.82,1
20.0,0.177,5.28,-0.366,5.3,1
20.0,-0.598,5.64,-0.64,5.71,1
20.0,-1.37,5.8,-0.553,5.98,1
20.1,-2.04,5.96,-0.477,6.32,1
20.1,-2.89,5.82,-0.239,6.5,1
20.1,-3.8,5.2,-0.0184,6.44,1
20.1,-5.12,3.37,0.22,6.14,1
20.1,-5.77,0.845,0.822,5.89,1
20.1,-5.92,-1.27,2.2,6.44,1
20.1,-5.56,-2.73,3.34,7.03,1
20.1,-4.51,-3.4,3.67,6.74,1
20.1,-3.05,-3.65,3.19,5.73,1
20.1,-1.36,-3.06,1.98,3.9,1
20.2,0.676,-1.76,0.689,2.01,1
20.2,2.41,-0.953,-0.237,2.61,1
20.2,3.87,-0.785,-0.533,3.99,1
20.2,5.12,-0.868,-0.521,5.22,1
20.2,5.75,-0.949,0.0822,5.83,1
20.2,5.93,-0.841,0.994,6.07,1
20.2,5.5,-0.648,2.2,5.96,1
20.2,4.22,-0.376,3.02,5.2,1
20.2,2.46,-0.194,1.87,3.09,1
20.2,0.701,0.126,0.886,1.14,1
20.3,-0.548,0.598,-0.109,0.819,1
20.3,-1.56,0.941,-0.887,2.03,1
20.3,-2.17,1.22,-1.33,2.82,1
20.3,-2.74,1.22,-1.41,3.32,1
20.3,-3.24,1.03,-1.17,3.6,1
20.3,-3.08,0.933,-0.755,3.31,1
20.3,-2.41,0.755,-0.285,2.54,1
20.3,-1.57,0.432,0.0807,1.63,1
20.3,-0.548,0.205,0.407,0.713,1
20.3,0.249,0.0309,0.68,0.725,1
20.4,0.831,-0.141,0.919,1.25,1
20.4,1.11,-0.34,1.17,1.65,1
20.4,1.18,-0.373,1.36,1.83,1
20.4,1.04,-0.341,1.45,1.82,1
20.4,0.674,-0.25,1.44,1.61,1
20.4,0.299,-0.136,1.37,1.41,1
20.4,-0.124,-0.0507,1.3,1.31,1
20.4,-0.58,-0.0503,1.1,1.24,1
20.4,-0.89,-0.058,0.767,1.18,1
20.4,-0.962,-0.00345,0.481,1.08,1
20.5,-0.979,0.0441,0.315,1.03,1
20.5,-0.965,0.0981,0.232,0.998,1
20.5,-0.83,0.262,0.0903,0.875,1
20.5,-0.739,0.381,-0.0449,0.833,1
20.5,-0.589,0.548,-0.193,0.827,1
20.5,-0.353,0.811,-0.37,0.959,1
20.5,-0.157,1.07,-0.483,1.18,1
20.5,-0.0854,1.13,-0.39,1.2,1
20.5,-0.274,1.12,-0.0933,1.15,1
20.5,-0.481,1.13,0.245,1.26,1
20.6,-0.693,1.08,0.427,1.36,1
20.6,-0.701,1.04,0.417,1.32,1
20.6,-0.547,1.15,0.49,1.37,1
20.6,-0.259,1.42,0.392,1.5,1
20.6,0.162,1.93,0.00857,1.93,1
20.6,0.45,2.6,-0.255,2.65,1
20.6,0.267,3.12,-0.254,3.14,1
20.6,-0.202,3.33,0.036,3.33,1
20.6,-0.73,3.15,0.733,3.31,1
20.6,-0.774,2.7,1.58,3.22,1
20.7,-1.4,1.7,1.63,2.74,1
20.7,-1.89,0.35,1.53,2.46,1
20.7,-0.485,-0.372,0.814,1.02,1
20.7,0.0125,-1.08,1.04,1.5,1
20.7,0.227,-1.73,1.55,2.33,1
20.7,0.749,-2.06,1.46,2.64,1
20.7,0.512,-2.23,0.472,2.33,1
20.7,1.32,-1.66,-0.982,2.33,1
20.7,2.11,-0.892,-1.65,2.82,1
20.7,2.0,-0.0907,-1.59,2.56,1
20.8,1.64,0.591,-1.55,2.33,1
1.06,-1.68,-1.66,3.02,3.83,1
1.07,-1.3,-1.84,1.71,2.83,1
1.08,-2.49,4.09,-6.76,8.28,1
1.09,-1.88,4.2,0.0516,4.6,1
1.1,-2.26,-0.368,4.78,5.3,1
1.11,0.473,-1.37,2.08,2.54,1
1.12,1.25,-0.459,-0.386,1.38,1
1.13,2.48,3.03,-3.25,5.09,1
1.14,1.67,2.49,-2.11,3.66,1
1.15,0.166,1.52,-1.92,2.45,1
1.16,-0.806,-0.0442,-0.0438,0.808,1
1.17,-1.87,1.5,-1.31,2.73,1
1.18,-0.447,-1.69,-0.142,1.75,1
1.19,-1.12,-3.92,0.969,4.19,1
1.2,-2.5,-6.94,2.79,7.89,1
1.21,-2.67,-7.53,3.99,8.93,1
1.22,-3.07,-5.71,1.91,6.76,1
1.23,-1.52,-2.91,-1.2,3.5,1
1.24,0.102,-0.891,-1.83,2.04,1
1.25,0.381,0.00511,-0.805,0.891,1
1.26,-0.21,0.551,0.189,0.619,1
1.27,-0.293,0.996,0.724,1.27,1
1.28,0.422,1.18,0.203,1.27,1
1.29,0.886,1.62,-0.407,1.89,1
1.3,0.524,1.88,-0.00981,1.95,1
1.31,-1.54,0.178,-1.06,1.88,1
1.32,-3.11,-0.518,-1.21,3.37,1
1.33,-4.61,-2.27,-1.2,5.28,1
1.34,-4.67,-1.66,-1.01,5.06,1
1.35,-2.82,1.65,-0.529,3.31,1
1.36,-0.885,4.23,1.1,4.46,1
1.37,-0.631,4.22,2.74,5.07,1
1.38,-0.441,4.15,3.04,5.16,1
1.39,-0.703,4.04,2.23,4.67,1
1.4,-0.607,3.07,0.755,3.22,1
1.41,-0.0784,0.517,0.198,0.559,1
1.42,0.641,-1.97,-1.37,2.48,1
1.43,0.727,-3.74,-3.3,5.04,1
1.44,0.64,-4.32,-3.25,5.45,1
1.45,0.108,-3.93,-1.46,4.2,1
1.46,0.0337,-3.54,0.442,3.57,1
1.47,-0.0295,-3.07,1.4,3.37,1
1.48,-0.72,-1.33,0.724,1.68,1
1.49,-1.41,-0.279,-0.159,1.45,1
1.5,-1.17,-0.12,-0.333,1.22,1
1.51,-0.576,0.202,-0.314,0.686,1
1.52,-0.168,0.219,-0.585,0.646,1
1.53,0.457,0.804,0.456,1.03,1
1.54,0.911,1.12,0.618,1.57,1
1.55,0.674,1.07,0.369,1.32,1
1.56,-2.28,7.55,-3.74,8.73,1
1.57,-0.921,7.0,-2.51,7.49,1
1.58,2.21,1.26,0.0953,2.54,1
1.59,1.38,2.35,-0.86,2.86,1
1.6,1.33,0.874,1.46,2.16,1
1.61,3.1,-2.45,2.49,4.67,1
1.62,3.97,-5.95,3.22,7.85,1
1.63,3.86,-8.1,3.24,9.54,1
1.64,3.62,-9.79,2.34,10.7,1
1.65,3.56,-10.5,0.234,11.1,1
1.66,4.17,-8.04,-2.65,9.44,1
1.67,3.68,-2.72,-5.75,7.35,1
1.68,1.06,1.05,-5.89,6.08,1
1.69,-0.777,1.76,-2.7,3.32,1
1.7,-1.48,1.52,0.131,2.13,1
1.71,-1.2,1.37,1.56,2.4,1
1.72,-0.25,1.02,1.98,2.24,1
1.73,0.406,0.632,1.84,1.99,1
1.74,0.419,0.265,1.4,1.48,1
1.75,0.262,-0.0973,0.758,0.807,1
1.76,0.21,-0.185,0.0526,0.285,1
1.77,0.537,0.2,-0.519,0.773,1
1.78,0.887,0.765,-0.872,1.46,1
1.79,0.546,0.403,-1.48,1.63,1
1.8,0.46,-0.155,-1.8,1.87,1
1.81,0.639,0.00329,-1.56,1.69,1
1.82,0.665,0.498,-1.13,1.4,1
1.83,0.467,0.842,-0.657,1.17,1
1.84,0.342,1.13,-0.413,1.25,1
1.85,0.404,1.46,-0.489,1.59,1
1.86,0.429,1.71,-0.751,1.91,1
1.87,0.246,1.85,-0.674,1.99,1
1.88,-0.0654,2.12,-0.341,2.14,1
1.89,-0.147,2.3,-0.569,2.38,1
1.9,-0.395,2.32,-1.71,2.91,1
1.91,-1.37,2.02,-2.58,3.55,1
1.92,-2.9,1.34,-1.67,3.6,1
1.93,-4.4,0.512,0.67,4.48,1
1.94,-5.14,0.344,2.74,5.84,1
1.95,-4.82,0.927,3.18,5.85,1
1.96,-3.82,1.43,1.98,4.54,1
1.97,-2.19,1.56,0.532,2.74,1
1.98,-0.955,0.519,-0.291,1.12,1
1.99,0.976,0.527,-0.225,1.13,1
2.0,2.74,1.01,0.359,2.94,1
2.01,3.58,1.04,0.6,3.78,1
2.02,3.31,0.697,0.757,3.47,1
2.03,2.32,0.256,0.266,2.35,1
2.04,1.64,0.318,-0.644,1.79,1
2.05,1.72,0.528,-2.07,2.75,1
2.06,1.49,0.392,-1.68,2.27,1
2.07,0.62,-0.619,-0.249,0.911,1
2.08,0.144,-1.59,-0.209,1.61,1
2.09,0.0503,-2.56,-0.482,2.6,1
2.1,-0.3,-4.15,0.0447,4.16,1
2.11,-0.638,-5.98,0.549,6.04,1
2.12,-0.773,-7.94,0.372,7.99,1
2.13,-0.764,-9.73,0.515,9.78,1
2.14,-0.683,-11.1,1.2,11.1,1
2.15,-0.411,-12.0,1.5,12.1,1
2.16,-0.0763,-12.5,1.59,12.6,1
2.17,0.00202,-12.6,1.74,12.7,1
2.18,0.266,-11.4,1.69,11.6,1
2.19,0.505,-9.34,1.72,9.51,1
2.2,0.612,-7.43,1.88,7.69,1
2.21,0.586,-5.93,1.79,6.23,1
2.22,0.286,-6.02,1.43,6.19,1
2.23,0.189,-6.63,0.0731,6.63,1
2.24,-0.289,-6.4,-1.63,6.61,1
2.25,-1.52,-4.78,-2.8,5.75,1
2.26,-3.11,-2.3,-3.48,5.2,1
2.27,-4.33,-0.098,-4.34,6.13,1
2.28,-5.15,1.77,-5.36,7.65,1
2.29,-4.89,3.59,-6.01,8.54,1
2.3,-4.06,5.43,-5.67,8.84,1
2.31,-2.92,6.92,-4.17,8.59,1
2.32,-1.39,8.59,-1.93,8.91,1
2.33,0.43,10.1,-0.0723,10.1,1
2.34,2.88,11.5,1.62,12.0,1
2.35,4.94,12.7,3.81,14.2,1
2.36,6.32,13.3,4.52,15.4,1
2.37,6.6,13.5,3.28,15.3,1
2.38,6.0,13.3,1.76,14.7,1
2.39,5.48,13.3,0.581,14.4,1
2.4,5.3,13.3,-0.0611,14.3,1
2.41,5.1,13.2,-0.238,14.1,1
2.42,4.95,13.1,0.239,14.0,1
2.43,4.74,12.8,0.974,13.7,1
2.44,3.89,11.8,2.16,12.6,1
2.45,2.37,9.56,3.02,10.3,1
2.46,1.08,7.8,2.54,8.28,1
2.47,0.0521,7.11,1.46,7.26,1
2.48,-0.59,6.86,0.184,6.89,1
2.49,-1.24,6.31,-1.39,6.58,1
2.5,-1.79,5.1,-3.22,6.29,1
2.51,-2.55,2.15,-5.7,6.6,1
2.52,-3.96,-2.9,-7.35,8.84,1
2.53,-6.55,-10.1,-6.91,13.9,1
2.54,-7.04,-14.8,-2.92,16.7,1
2.55,-4.72,-16.2,1.09,16.9,1
2.56,-2.22,-17.0,2.59,17.4,1
2.57,-0.598,-18.0,3.69,18.4,1
2.58,1.2,-18.0,4.54,18.6,1
2.59,5.08,-12.8,4.24,14.4,1
2.6,6.44,-7.4,2.61,10.1,1
2.61,4.94,-6.36,1.41,8.17,1
2.62,2.82,-6.35,-1.04,7.03,1
2.63,0.657,-5.78,-2.85,6.48,1
2.64,-1.97,-4.51,-2.82,5.67,1
2.65,-4.12,-2.87,-1.21,5.17,1
2.66,-5.35,-1.4,-0.101,5.53,1
2.67,-6.01,-0.194,1.09,6.11,1
2.68,-6.08,0.886,1.8,6.4,1
2.69,-5.94,1.45,1.59,6.31,1
2.7,-5.55,1.48,1.46,5.92,1
2.71,-4.72,1.21,1.56,5.11,1
2.72,-3.66,1.03,1.45,4.07,1
2.73,-2.49,0.588,0.854,2.69,1
2.74,-0.703,0.463,0.171,0.859,1
2.75,1.25,1.07,-0.208,1.65,1
2.76,2.42,1.39,-0.285,2.8,1
2.77,2.87,1.56,-0.352,3.28,1
2.78,2.73,1.88,-0.0113,3.31,1
2.79,2.45,2.32,0.249,3.38,1
2.8,2.05,2.66,0.29,3.38,1
2.81,1.61,2.9,0.243,3.33,1
2.82,1.33,3.04,0.271,3.33,1
2.83,1.16,2.97,0.169,3.19,1
2.84,1.12,2.67,0.136,2.9,1
2.85,1.19,2.1,0.113,2.41,1
2.86,1.22,1.23,-0.0888,1.74,1
2.87,1.26,0.263,-0.269,1.32,1
2.88,1.27,-0.602,-0.262,1.43,1
2.89,1.25,-1.33,-0.186,1.83,1
2.9,1.16,-1.76,-0.431,2.15,1
2.91,1.04,-1.71,-0.925,2.2,1
2.92,0.879,-1.28,-1.36,2.06,1
2.93,0.595,-0.774,-1.38,1.69,1
2.94,0.224,-0.519,-0.958,1.11,1
2.95,-0.0766,-0.485,-0.327,0.59,1
2.96,-0.189,-0.562,0.0567,0.596,1
2.97,-0.296,-0.742,0.0759,0.803,1
2.98,-0.313,-0.903,-0.0308,0.956,1
2.99,-0.246,-0.93,-0.0191,0.962,1
3.0,-0.177,-0.789,0.118,0.817,1
3.01,-0.115,-0.581,0.303,0.666,1
3.02,-0.0555,-0.306,0.41,0.515,1
3.03,0.0106,-0.0875,0.451,0.46,1
3.04,0.182,0.145,0.538,0.586,1
3.05,0.383,0.378,0.658,0.85,1
3.06,0.571,0.517,0.787,1.1,1
3.07,0.691,0.616,0.852,1.26,1
3.08,0.74,0.701,0.821,1.31,1
3.09,0.767,0.741,0.715,1.28,1
3.1,0.731,0.772,0.577,1.21,1
3.11,0.614,0.743,0.449,1.06,1
3.12,0.435,0.649,0.288,0.833,1
3.13,0.281,0.605,0.147,0.682,1
3.14,0.164,0.591,-0.0299,0.614,1
3.15,0.119,0.545,-0.177,0.586,1
3.16,0.135,0.496,-0.279,0.585,1
3.17,0.285,0.554,-0.495,0.796,1
3.18,0.445,0.621,-0.821,1.12,1
3.19,0.56,0.65,-0.859,1.21,1
3.2,0.636,0.765,-0.749,1.25,1
3.21,0.675,0.98,-0.727,1.39,1
3.22,0.718,1.28,-0.85,1.69,1
3.23,0.839,1.49,-1.06,2.01,1
3.24,1.01,1.56,-1.14,2.18,1
3.25,1.27,1.43,-1.01,2.17,1
3.26,1.63,1.12,-0.847,2.15,1
3.27,2.02,0.763,-0.659,2.25,1
3.28,2.23,0.574,-0.518,2.36,1
3.29,2.21,0.622,-0.418,2.33,1
3.3,1.88,0.836,-0.145,2.06,1
3.31,1.12,0.896,-0.0729,1.43,1
3.32,0.134,0.749,-0.43,0.874,1
3.33,-0.575,0.568,-0.801,1.14,1
3.34,-1.25,0.252,-0.517,1.38,1
3.35,-1.63,0.0898,0.2,1.65,1
3.36,-1.44,0.366,0.384,1.54,1
3.37,-1.09,0.767,0.11,1.33,1
3.38,-0.58,1.2,0.0858,1.34,1
3.39,-0.0599,1.61,0.628,1.73,1
3.4,0.215,1.71,1.56,2.32,1
3.41,0.195,1.75,1.95,2.62,1
3.42,0.208,1.85,1.24,2.24,1
3.43,0.3,1.59,0.0713,1.62,1
3.44,0.096,0.788,-0.737,1.08,1
3.45,-0.24,-0.283,-0.457,0.589,1
3.46,-0.574,-1.17,0.0249,1.31,1
3.47,-0.886,-1.72,-0.074,1.93,1
3.48,-1.07,-2.03,-0.0629,2.3,1
3.49,-0.956,-2.27,-0.322,2.48,1
3.5,-0.773,-2.64,-0.476,2.79,1
3.51,-0.763,-3.25,-0.575,3.39,1
3.52,-1.23,-3.96,-0.601,4.19,1
3.53,-2.01,-4.8,-0.33,5.21,1
3.54,-2.45,-5.65,-0.447,6.17,1
3.55,-2.55,-6.56,-0.636,7.07,1
3.56,-2.29,-7.36,-0.802,7.75,1
3.57,-1.93,-8.03,-0.888,8.3,1
3.58,-1.64,-8.66,-0.908,8.86,1
3.59,-1.52,-9.49,-0.615,9.63,1
3.6,-1.54,-10.3,0.0437,10.4,1
3.61,-1.6,-11.0,0.331,11.1,1
3.62,-1.68,-11.2,0.444,11.3,1
3.63,-1.7,-10.6,0.543,10.7,1
3.64,-1.6,-9.19,0.438,9.33,1
3.65,-1.71,-7.07,0.231,7.28,1
3.66,-1.83,-4.43,0.152,4.8,1
3.67,-1.78,-2.3,0.101,2.91,1
3.68,-1.76,-0.709,-0.288,1.92,1
3.69,-1.66,0.624,-0.514,1.84,1
3.7,-1.41,1.87,-0.207,2.35,1
3.71,-0.798,3.08,0.119,3.18,1
3.72,0.146,4.48,-0.00228,4.48,1
3.73,0.806,5.6,-0.184,5.66,1
3.74,1.51,6.76,-0.132,6.93,1
3.75,2.14,8.1,0.436,8.39,1
3.76,2.4,9.12,0.838,9.47,1
3.77,3.01,10.1,-0.299,10.5,1
3.78,3.78,11.0,-2.35,11.9,1
3.79,4.41,11.7,-4.07,13.2,1
3.8,4.71,11.9,-5.09,13.7,1
3.81,3.91,11.3,-4.73,12.8,1
3.82,2.38,10.5,-3.11,11.2,1
3.83,1.41,10.3,-2.58,10.7,1
3.84,1.02,10.1,-1.9,10.3,1
3.85,0.953,9.98,-0.236,10.0,1
3.86,1.13,9.99,1.34,10.1,1
3.87,1.46,10.1,2.75,10.6,1
3.88,1.92,10.3,4.19,11.3,1
3.89,2.61,10.6,5.04,12.0,1
3.9,3.18,10.6,5.2,12.2,1
3.91,3.72,9.89,4.68,11.6,1
3.92,4.34,8.52,3.27,10.1,1
3.93,4.72,6.13,1.22,7.83,1
3.94,4.51,2.37,-2.94,5.88,1
3.95,3.43,-4.61,-10.2,11.7,1
3.96,-0.358,-12.3,-13.6,18.3,1
3.97,-4.74,-16.0,-8.88,18.9,1
3.98,-4.85,-18.0,-2.07,18.7,1
3.99,-3.61,-15.6,4.64,16.6,1
4.0,-2.21,-5.77,5.63,8.36,1
4.01,-4.1,-3.28,4.13,6.68,1
4.02,-2.95,-9.14,2.83,10.0,1
4.03,4.73,-12.8,1.48,13.8,1
4.04,8.99,-13.9,0.0485,16.6,1
4.05,7.34,-13.2,-0.711,15.1,1
4.06,2.87,-11.5,-3.4,12.4,1
4.07,-1.0,-7.81,-4.94,9.3,1
4.08,-4.04,-4.22,-3.71,6.92,1
4.09,-6.09,-1.6,-1.27,6.43,1
4.1,-6.89,0.498,1.46,7.06,1
4.11,-6.76,2.06,3.25,7.78,1
4.12,-5.74,3.2,4.55,8.0,1
4.13,-4.64,3.96,4.99,7.88,1
4.14,-4.45,4.0,4.11,7.26,1
4.15,-4.62,3.55,2.99,6.55,1
4.16,-3.07,3.02,2.28,4.87,1
4.17,-0.038,1.51,2.28,2.73,1
4.18,2.49,0.124,1.67,3.0,1
4.19,4.21,-0.0879,0.0158,4.21,1
4.2,4.88,0.306,-1.44,5.09,1
4.21,4.39,0.845,-1.83,4.83,1
4.22,3.66,1.59,-1.68,4.33,1
4.23,2.87,2.42,-1.22,3.95,1
4.24,2.09,3.03,-0.953,3.8,1
4.25,1.26,3.24,-0.964,3.61,1
4.26,0.57,3.19,-1.42,3.54,1
4.27,0.0421,2.85,-2.06,3.52,1
4.28,-0.439,1.83,-2.31,2.98,1
4.29,-0.785,0.2,-2.0,2.16,1
4.3,-0.621,-1.36,-1.66,2.24,1
4.31,-0.19,-2.42,-1.27,2.74,1
4.32,0.383,-3.0,-0.965,3.18,1
4.33,1.02,-3.13,-0.918,3.42,1
4.34,1.53,-2.73,-0.706,3.21,1
4.35,1.99,-1.64,0.00409,2.57,1
4.36,1.9,-0.588,0.816,2.15,1
4.37,1.45,-0.181,1.28,1.95,1
4.38,0.861,0.121,1.05,1.36,1
4.39,0.286,0.418,0.406,0.65,1
4.4,-0.25,0.609,0.0417,0.66,1
4.41,-0.735,0.707,0.0464,1.02,1
4.42,-1.01,0.723,0.0871,1.24,1
4.43,-1.06,0.783,-0.0463,1.32,1
4.44,-1.01,0.781,-0.123,1.29,1
4.45,-0.922,0.714,-0.0527,1.17,1
4.46,-0.77,0.64,0.0535,1.0,1
4.47,-0.625,0.596,0.197,0.886,1
4.48,-0.499,0.59,0.366,0.855,1
4.49,-0.434,0.616,0.52,0.916,1
4.5,-0.376,0.545,0.632,0.915,1
4.51,-0.28,0.349,0.588,0.739,1
4.52,-0.159,0.174,0.396,0.461,1
4.53,-0.0248,0.0385,0.175,0.181,1
4.54,0.134,-0.103,-0.0427,0.175,1
4.55,0.236,-0.17,-0.2,0.353,1
4.56,0.298,-0.163,-0.33,0.473,1
4.57,0.359,-0.0622,-0.415,0.552,1
4.58,0.318,0.0183,-0.446,0.548,1
4.59,0.298,0.12,-0.448,0.552,1
4.6,0.24,0.162,-0.528,0.602,1
4.61,0.0907,0.14,-0.652,0.673,1
4.62,-0.0742,0.125,-0.658,0.674,1
4.63,-0.144,0.156,-0.43,0.48,1
4.64,-0.147,0.225,-0.154,0.31,1
4.65,-0.0598,0.29,-0.0421,0.299,1
4.66,0.113,0.32,-0.0235,0.34,1
4.67,0.357,0.23,-0.00872,0.425,1
4.68,0.583,0.0787,0.00323,0.588,1
4.69,0.733,-0.0739,0.087,0.742,1
4.7,0.818,-0.197,0.155,0.855,1
4.71,0.762,-0.229,0.189,0.818,1
4.72,0.614,-0.131,0.179,0.653,1
4.73,0.434,-0.0574,0.202,0.482,1
4.74,0.235,0.0049,0.232,0.33,1
4.75,0.1,0.0456,0.204,0.232,1
4.76,0.0168,0.0261,0.0555,0.0636,1
4.77,-0.0414,-0.0507,-0.0944,0.115,1
4.78,-0.101,-0.123,-0.217,0.269,1
4.79,-0.0992,-0.13,-0.261,0.308,1
4.8,-0.111,-0.077,-0.247,0.282,1
4.81,-0.136,0.000624,-0.26,0.294,1
4.82,-0.131,0.118,-0.339,0.381,1
4.83,-0.144,0.227,-0.417,0.496,1
4.84,-0.15,0.315,-0.382,0.517,1
4.85,-0.154,0.375,-0.308,0.51,1
4.86,-0.166,0.401,-0.352,0.559,1
4.87,-0.101,0.432,-0.394,0.593,1
4.88,-0.0914,0.392,-0.366,0.544,1
4.89,-0.0289,0.401,-0.359,0.539,1
4.9,0.0932,0.425,-0.322,0.542,1
4.91,0.23,0.433,-0.408,0.638,1
4.92,0.294,0.437,-0.611,0.807,1
4.93,0.369,0.578,-0.633,0.933,1
4.94,0.435,0.799,-0.544,1.06,1
4.95,0.483,0.98,-0.304,1.13,1
4.96,0.549,1.1,-0.215,1.25,1
4.97,0.633,1.13,-0.199,1.31,1
4.98,0.619,1.18,-0.306,1.37,1
4.99,0.521,1.15,-0.619,1.41,1
5.0,0.43,1.05,-0.784,1.38,1
5.01,0.33,0.9,-0.531,1.1,1
5.02,0.261,0.77,-0.375,0.896,1
5.03,0.345,0.781,-0.258,0.892,1
5.04,0.403,0.834,-0.121,0.934,1
5.05,0.483,0.988,-0.0829,1.1,1
5.06,0.561,1.24,-0.31,1.4,1
5.07,0.594,1.36,-0.264,1.51,1
5.08,0.813,1.37,-0.286,1.62,1
5.09,0.996,1.41,-0.428,1.78,1
5.1,1.01,1.54,-0.447,1.89,1
5.11,0.938,1.74,-0.467,2.03,1
5.12,0.715,1.88,0.0531,2.01,1
5.13,0.318,1.73,-0.138,1.77,1
5.14,0.0319,1.54,-0.576,1.65,1
5.15,-0.0805,1.23,-0.388,1.29,1
5.16,-0.232,0.852,0.23,0.913,1
5.17,-0.201,0.725,0.143,0.766,1
5.18,0.226,0.599,-0.573,0.859,1
5.19,0.543,0.32,-1.06,1.23,1
5.2,0.00665,-0.171,-1.38,1.39,1
5.21,-1.28,-0.755,-1.28,1.96,1
5.22,-1.69,-1.3,-1.23,2.46,1
5.23,-1.3,-2.35,-1.83,3.25,1
5.24,-1.58,-3.99,-2.38,4.91,1
5.25,-2.0,-5.77,-2.22,6.5,1
5.26,-1.69,-7.6,-1.96,8.03,1
5.27,-0.902,-9.17,-2.24,9.48,1
5.28,-0.318,-10.1,-1.48,10.2,1
5.29,-0.535,-10.7,-0.495,10.7,1
5.3,-1.11,-11.0,-0.132,11.0,1
5.31,-1.27,-11.5,-0.103,11.6,1
5.32,-1.09,-12.3,0.733,12.3,1
5.33,-0.526,-12.6,1.26,12.7,1
5.34,0.141,-11.9,1.59,12.0,1
5.35,0.504,-10.6,1.75,10.8,1
5.36,0.556,-9.09,1.7,9.27,1
5.37,0.305,-7.4,1.9,7.64,1
5.38,0.352,-5.69,2.15,6.09,1
5.39,0.676,-4.27,2.47,4.98,1
5.4,1.12,-2.94,2.57,4.06,1
5.41,0.907,-1.79,1.97,2.82,1
5.42,0.727,-0.394,0.788,1.14,1
5.43,0.3,1.28,-1.07,1.7,1
5.44,-0.494,2.87,-2.67,3.95,1
5.45,-0.995,4.22,-4.11,5.98,1
5.46,-1.45,5.65,-5.16,7.79,1
5.47,-1.84,7.01,-5.69,9.21,1
5.48,-2.01,8.35,-6.2,10.6,1
5.49,-1.28,9.67,-5.96,11.4,1
5.5,0.00218,10.7,-3.71,11.3,1
5.51,1.49,11.3,-0.286,11.5,1
5.52,2.96,11.7,1.88,12.2,1
5.53,3.68,11.8,2.01,12.5,1
5.54,3.89,11.7,1.41,12.4,1
5.55,3.95,11.8,1.02,12.4,1
5.56,3.75,11.8,0.99,12.4,1
5.57,3.57,11.8,1.32,12.4,1
5.58,3.5,11.6,1.75,12.2,1
5.59,3.3,11.5,1.99,12.1,1
5.6,2.92,11.3,1.94,11.9,1
5.61,2.6,10.9,1.96,11.4,1
5.62,2.49,9.98,2.1,10.5,1
5.63,2.47,8.74,2.29,9.36,1
5.64,2.1,7.56,2.24,8.16,1
5.65,1.63,6.79,1.57,7.16,1
5.66,1.3,6.49,0.233,6.63,1
5.67,0.858,6.6,-1.5,6.82,1
5.68,0.0139,6.55,-4.47,7.93,1
5.69,-1.3,5.45,-8.93,10.5,1
5.7,-2.69,2.69,-10.8,11.4,1
5.71,-3.06,-2.03,-9.94,10.6,1
5.72,-2.98,-7.19,-5.33,9.43,1
5.73,-1.78,-8.5,4.04,9.58,1
5.74,-0.82,-7.56,9.4,12.1,1
5.75,-1.25,-9.02,8.68,12.6,1
5.76,-3.26,-12.4,6.4,14.3,1
5.77,-3.74,-16.8,4.55,17.8,1
5.78,2.68,-20.1,1.15,20.3,1
5.79,10.3,-18.6,-1.08,21.2,1
5.8,12.4,-12.6,0.742,17.8,1
5.81,9.42,-9.64,1.48,13.6,1
5.82,3.66,-10.2,-2.87,11.2,1
5.83,-1.91,-9.8,-8.08,12.8,1
5.84,-4.66,-7.63,-9.4,13.0,1
5.85,-6.16,-5.03,-4.05,8.92,1
5.86,-7.44,-2.22,0.569,7.78,1
5.87,-8.53,0.126,1.25,8.63,1
5.88,-8.22,1.52,1.35,8.47,1
5.89,-6.92,1.94,1.39,7.32,1
5.9,-5.53,2.06,1.31,6.04,1
5.91,-5.23,2.0,2.14,5.99,1
5.92,-4.42,1.15,1.59,4.84,1
5.93,-1.18,-0.145,1.64,2.02,1
5.94,2.65,-0.976,1.9,3.41,1
5.95,4.39,-1.16,1.78,4.87,1
5.96,4.61,-0.116,1.3,4.79,1
5.97,3.95,1.47,1.01,4.33,1
5.98,3.28,3.09,0.796,4.58,1
5.99,2.85,4.6,0.643,5.46,1
6.0,2.37,5.6,0.146,6.08,1
6.01,1.86,6.21,-0.488,6.5,1
6.02,1.25,6.27,-1.05,6.48,1
6.03,0.698,5.96,-1.48,6.18,1
6.04,0.346,5.18,-1.93,5.54,1
6.05,0.197,3.61,-2.3,4.29,1
25.8,2.79,-3.76,0.769,4.75,1
25.8,5.38,-1.96,1.69,5.96,1
25.8,6.65,-1.02,1.81,6.97,1
25.8,6.49,-0.985,2.28,6.95,1
25.8,5.42,-1.33,3.1,6.38,1
25.8,3.99,-1.63,3.86,5.79,1
25.8,2.44,-1.8,4.02,5.03,1
25.8,1.22,-1.39,3.64,4.08,1
25.9,-0.0402,-1.15,2.76,2.99,1
25.9,-0.682,-0.591,1.54,1.78,1
25.9,-1.14,0.069,0.629,1.3,1
25.9,-1.37,0.76,0.159,1.57,1
25.9,-1.7,1.22,-0.0153,2.09,1
25.9,-2.25,1.39,0.0149,2.65,1
25.9,-2.79,1.38,0.255,3.12,1
25.9,-3.08,1.23,0.483,3.35,1
25.9,-2.93,0.955,0.499,3.12,1
25.9,-2.5,0.454,0.692,2.63,1
26.0,-1.7,-0.0583,0.978,1.97,1
26.0,-0.648,-0.513,1.3,1.54,1
26.0,0.485,-0.918,1.74,2.03,1
26.0,1.43,-1.28,2.2,2.92,1
26.0,2.02,-1.44,2.42,3.47,1
26.0,2.36,-1.42,3.06,4.12,1
26.0,2.42,-1.28,4.26,5.06,1
26.0,1.94,-1.05,4.72,5.21,1
26.0,1.74,-0.673,3.63,4.09,1
26.0,3.01,0.254,0.895,3.15,1
26.1,3.41,1.27,-0.259,3.65,1
26.1,2.42,2.49,0.117,3.48,1
26.1,0.233,3.6,2.03,4.14,1
26.1,-1.5,4.26,2.42,5.12,1
26.1,-1.67,4.58,-0.308,4.88,1
26.1,-1.2,4.76,-1.93,5.28,1
26.1,-0.685,4.82,-0.493,4.89,1
26.1,-0.325,4.51,1.69,4.82,1
26.1,-0.182,3.49,2.62,4.37,1
26.1,0.554,2.26,1.6,2.83,1
26.2,1.39,1.26,-0.237,1.89,1
26.2,1.5,0.741,-1.13,2.01,1
26.2,0.818,0.779,-0.745,1.35,1
26.2,0.132,1.15,-1.48,1.87,1
26.2,-0.214,1.53,-3.21,3.56,1
26.2,-0.192,2.1,-4.18,4.68,1
26.2,-0.0958,2.28,-3.47,4.15,1
26.2,-0.0799,1.95,-3.67,4.15,1
26.2,-2.01,0.848,-1.82,2.84,1
26.2,-2.33,-0.322,-0.939,2.53,1
26.3,-1.28,-1.23,-1.69,2.45,1
26.3,-0.572,-2.06,-2.26,3.1,1
26.3,-0.797,-3.1,-1.92,3.73,1
26.3,-1.13,-4.4,-2.11,5.01,1
26.3,-2.36,-6.29,-1.53,6.89,1
26.3,-2.83,-8.04,-1.0,8.58,1
26.3,-2.5,-9.24,-1.03,9.62,1
26.3,-2.42,-9.92,-0.0806,10.2,1
26.3,-2.81,-10.6,0.742,11.0,1
26.3,-3.22,-11.2,0.464,11.7,1
26.4,-3.23,-11.3,-0.752,11.8,1
26.4,-4.2,-11.8,-0.774,12.5,1
26.4,-4.09,-11.2,-0.21,11.9,1
26.4,-3.05,-10.2,-1.56,10.8,1
26.4,-2.15,-9.3,-2.17,9.79,1
26.4,-1.48,-8.6,-2.26,9.01,1
26.4,-0.964,-8.47,-2.3,8.83,1
26.4,-0.834,-8.8,-1.35,8.94,1
26.4,-0.386,-9.07,0.347,9.09,1
26.4,-0.117,-9.08,1.7,9.24,1
26.5,1.07,-8.21,2.96,8.79,1
26.5,2.01,-6.16,4.4,7.83,1
26.5,2.56,-3.47,5.28,6.82,1
26.5,3.12,-0.742,5.23,6.13,1
26.5,3.01,1.62,4.68,5.8,1
26.5,2.53,3.4,3.66,5.6,1
26.5,2.09,5.26,2.62,6.24,1
26.5,1.71,7.11,1.57,7.48,1
26.5,1.37,8.65,0.586,8.78,1
26.5,1.24,9.9,0.316,9.98,1
26.6,0.876,10.7,1.32,10.8,1
26.6,0.434,11.5,3.22,11.9,1
26.6,-0.347,11.9,4.76,12.9,1
26.6,-1.32,12.3,5.42,13.5,1
26.6,-1.96,12.4,4.56,13.4,1
26.6,-2.43,12.0,2.61,12.5,1
26.6,-1.9,10.9,0.773,11.1,1
26.6,-0.136,10.0,-1.26,10.1,1
26.6,1.33,9.41,-2.9,9.94,1
26.6,2.82,9.21,-3.1,10.1,1
26.7,3.36,9.39,-3.38,10.5,1
26.7,3.49,9.83,-3.34,10.9,1
26.7,3.55,10.3,-3.09,11.3,1
26.7,2.97,10.7,-2.71,11.4,1
26.7,1.89,11.1,-2.07,11.5,1
26.7,1.21,11.1,-1.06,11.3,1
26.7,1.1,10.4,-0.55,10.4,1
26.7,1.15,9.19,-0.315,9.27,1
26.7,0.844,8.07,0.471,8.13,1
26.7,0.45,7.27,1.84,7.52,1
26.8,0.0487,6.57,4.07,7.73,1
26.8,-0.327,5.62,5.13,7.62,1
26.8,-0.566,3.73,1.25,3.98,1
26.8,2.72,2.48,-4.25,5.62,1
26.8,3.95,0.172,-2.98,4.95,1
26.8,2.17,-3.54,-1.38,4.37,1
26.8,-0.119,-7.23,-0.931,7.29,1
26.8,-4.84,-15.2,6.63,17.3,1
26.8,-16.5,-34.3,21.0,43.5,1
26.8,-20.8,-50.6,17.9,57.5,1
26.9,-5.43,-43.1,7.62,44.1,1
26.9,4.35,-23.3,-2.46,23.9,1
26.9,3.11,-10.5,-9.71,14.6,1
26.9,-2.16,-5.55,-11.0,12.5,1
26.9,-4.54,0.218,-11.7,12.5,1
26.9,-5.16,5.57,-11.2,13.5,1
26.9,-4.87,9.55,-11.1,15.4,1
26.9,-5.44,11.2,-10.2,16.1,1
26.9,-4.89,9.61,-8.14,13.5,1
26.9,-2.31,6.51,-6.26,9.32,1
27.0,0.231,4.19,-5.91,7.24,1
27.0,2.67,1.99,-3.63,4.92,1
27.0,6.07,-0.933,-0.289,6.15,1
27.0,8.14,-4.25,1.19,9.26,1
27.0,8.93,-6.22,2.33,11.1,1
27.0,8.9,-6.81,4.04,11.9,1
27.0,7.84,-5.01,4.49,10.3,1
27.0,6.11,-1.63,3.21,7.09,1
27.0,4.24,1.24,1.77,4.76,1
27.0,2.55,2.51,0.443,3.6,1
27.1,1.09,3.8,-0.528,3.99,1
27.1,0.361,4.98,-0.521,5.02,1
27.1,-0.271,5.97,-0.186,5.98,1
27.1,-1.42,6.71,0.638,6.89,1
27.1,-3.07,7.16,1.24,7.89,1
27.1,-5.12,6.57,1.26,8.43,1
27.1,-7.39,4.09,1.31,8.55,1
27.1,-9.7,0.432,2.63,10.1,1
27.1,-10.8,-2.66,3.27,11.6,1
27.1,-9.38,-4.74,2.76,10.9,1
27.2,-6.58,-5.28,1.16,8.52,1
27.2,-3.69,-4.84,-0.187,6.09,1
27.2,-0.487,-4.05,0.31,4.09,1
27.2,2.47,-2.52,0.289,3.54,1
27.2,5.21,-1.45,0.292,5.41,1
27.2,7.29,-1.26,0.361,7.41,1
27.2,8.09,-1.53,0.926,8.29,1
27.2,7.63,-1.41,2.19,8.06,1
27.2,6.6,-0.695,3.91,7.7,1
27.2,4.79,0.189,3.71,6.06,1
27.3,2.04,0.551,2.36,3.17,1
27.3,-0.176,0.907,1.67,1.91,1
27.3,-1.39,1.44,0.469,2.06,1
27.3,-2.11,1.97,-0.474,2.92,1
27.3,-2.34,2.13,-0.769,3.25,1
27.3,-2.71,1.65,-1.03,3.34,1
27.3,-2.92,1.06,-1.01,3.27,1
27.3,-2.6,0.566,-0.662,2.74,1
27.3,-2.09,-0.0726,-0.216,2.1,1
27.3,-1.34,-0.678,0.407,1.56,1
27.4,-0.613,-1.22,1.14,1.78,1
27.4,0.0828,-1.56,1.93,2.48,1
27.4,0.605,-1.62,2.54,3.07,1
27.4,0.973,-1.39,3.24,3.65,1
27.4,0.448,-1.29,3.42,3.69,1
27.4,0.221,-0.778,3.12,3.22,1
27.4,0.102,-0.111,2.17,2.17,1
27.4,0.242,0.581,0.925,1.12,1
27.4,0.613,1.3,-0.0903,1.44,1
27.4,0.626,1.82,0.0657,1.92,1
27.5,0.185,2.04,1.84,2.75,1
27.5,0.445,2.23,3.26,3.98,1
27.5,0.184,2.26,2.97,3.74,1
27.5,1.26,2.26,3.77,4.58,1
27.5,2.96,2.21,3.47,5.07,1
27.5,4.08,2.02,2.7,5.3,1
27.5,4.51,1.87,1.64,5.15,1
27.5,3.38,1.46,1.25,3.89,1
27.5,1.32,1.37,0.923,2.12,1
27.5,0.321,2.26,-0.834,2.43,1
27.6,0.835,3.73,-2.83,4.76,1
27.6,1.83,4.82,-2.97,5.95,1
27.6,1.87,5.35,-0.651,5.71,1
27.6,1.54,4.89,1.74,5.41,1
27.6,1.65,3.79,1.55,4.42,1
27.6,1.9,2.8,0.391,3.41,1
27.6,1.15,2.12,0.0863,2.42,1
27.6,-1.01,1.42,1.31,2.18,1
27.6,-2.44,0.725,0.493,2.59,1
27.6,-2.8,-0.206,-1.39,3.13,1
27.7,-3.59,-1.22,-1.14,3.96,1
27.7,-4.59,-2.62,-0.546,5.31,1
27.7,-4.27,-4.14,-1.38,6.11,1
27.7,-4.58,-5.45,-0.496,7.13,1
27.7,-5.05,-6.56,0.676,8.31,1
27.7,-4.15,-7.36,0.00992,8.45,1
27.7,-3.43,-7.77,-0.37,8.5,1
27.7,-3.32,-8.44,-1.26,9.16,1
27.7,-2.71,-9.14,-2.19,9.78,1
27.7,-2.86,-9.89,-1.02,10.4,1
27.8,-2.76,-10.4,-0.658,10.7,1
27.8,-2.43,-10.2,-0.946,10.5,1
27.8,-2.09,-9.53,-0.609,9.78,1
27.8,-1.5,-8.84,-1.18,9.05,1
27.8,-1.42,-8.57,-1.47,8.81,1
27.8,-0.761,-8.8,-1.02,8.89,1
27.8,0.275,-9.25,-2.1,9.49,1
27.8,1.37,-9.38,-3.09,9.97,1
27.8,1.96,-9.45,-3.02,10.1,1
27.8,2.28,-9.22,-2.55,9.83,1
27.9,2.39,-8.78,-1.42,9.21,1
27.9,2.09,-7.84,0.383,8.13,1
27.9,2.33,-6.13,2.23,6.93,1
27.9,3.3,-3.65,3.31,5.93,1
27.9,3.66,-1.25,3.41,5.16,1
27.9,3.12,0.575,3.2,4.5,1
27.9,2.64,2.39,2.81,4.54,1
27.9,2.22,3.94,2.29,5.07,1
27.9,1.65,5.23,1.28,5.63,1
27.9,1.15,6.48,1.33,6.71,1
28.0,0.556,8.0,2.48,8.4,1
28.0,-0.771,9.16,4.74,10.3,1
28.0,-2.53,10.0,7.55,12.8,1
28.0,-4.03,10.7,8.44,14.2,1
28.0,-4.29,12.0,6.72,14.4,1
28.0,-3.21,13.1,4.08,14.1,1
28.0,-2.16,12.5,1.67,12.8,1
28.0,-1.39,10.7,-0.933,10.8,1
28.0,0.327,10.0,-3.0,10.5,1
28.0,2.81,9.55,-3.67,10.6,1
28.1,4.17,9.15,-3.93,10.8,1
28.1,4.74,9.4,-3.58,11.1,1
28.1,5.23,9.95,-2.89,11.6,1
28.1,5.04,10.4,-2.18,11.8,1
28.1,4.45,10.9,-1.19,11.8,1
28.1,4.02,11.4,-0.303,12.1,1
28.1,3.48,11.3,-0.0215,11.9,1
28.1,2.86,10.7,-0.000422,11.1,1
28.1,2.3,9.49,0.0847,9.77,1
28.1,1.31,8.02,1.0,8.19,1
28.2,0.596,7.32,2.53,7.77,1
28.2,-0.548,6.59,3.96,7.71,1
28.2,-1.74,5.74,6.43,8.79,1
28.2,-3.97,4.19,7.19,9.22,1
28.2,-3.53,2.31,1.23,4.4,1
28.2,0.114,1.76,-6.13,6.38,1
28.2,1.1,-0.758,-4.13,4.34,1
28.2,-2.13,-5.84,-1.9,6.5,1
28.2,-7.93,-12.8,5.18,15.9,1
28.2,-17.0,-29.3,16.9,37.9,1
28.3,-19.2,-45.4,14.5,51.4,1
28.3,-10.4,-42.4,6.52,44.2,1
28.3,1.81,-22.6,-0.777,22.7,1
28.3,5.62,-10.8,-12.0,17.1,1
28.3,2.73,-4.81,-13.9,15.0,1
28.3,-0.834,0.321,-11.2,11.2,1
28.3,-2.08,4.86,-9.09,10.5,1
28.3,-2.27,8.38,-7.64,11.6,1
28.3,-1.58,9.82,-6.54,11.9,1
28.3,0.173,8.32,-5.1,9.76,1
28.4,2.21,4.27,-4.07,6.29,1
28.4,2.95,0.374,-2.92,4.17,1
28.4,3.51,-2.22,-1.04,4.28,1
28.4,5.03,-4.35,0.534,6.67,1
28.4,5.43,-6.19,1.51,8.37,1
28.4,4.6,-7.53,2.78,9.25,1
28.4,2.92,-7.64,3.69,8.98,1
28.4,1.49,-5.58,4.3,7.2,1
28.4,0.573,-2.29,3.19,3.97,1
28.4,0.0179,0.457,1.4,1.47,1
28.5,-0.35,2.7,0.686,2.81,1
28.5,-0.745,4.65,0.877,4.79,1
28.5,-1.33,6.17,0.826,6.37,1
28.5,-1.88,7.26,0.477,7.52,1
28.5,-2.31,7.96,0.345,8.3,1
28.5,-2.77,8.19,0.308,8.65,1
28.5,-3.34,7.83,0.569,8.54,1
28.5,-4.34,6.79,0.853,8.11,1
28.5,-5.65,4.55,1.1,7.33,1
28.5,-6.17,1.22,1.69,6.52,1
28.6,-5.47,-1.46,2.11,6.04,1
28.6,-4.03,-3.92,1.9,5.94,1
28.6,-1.94,-6.29,1.61,6.78,1
28.6,0.902,-7.17,1.16,7.32,1
28.6,4.07,-5.98,0.919,7.29,1
28.6,6.73,-3.65,1.2,7.74,1
28.6,7.42,-1.76,1.93,7.87,1
28.6,6.32,-0.582,2.7,6.89,1
28.6,4.74,0.226,3.11,5.68,1
28.6,3.58,0.854,2.28,4.33,1
28.7,2.23,0.93,0.857,2.57,1
28.7,0.699,0.887,-0.361,1.19,1
28.7,-0.402,0.868,-0.618,1.14,1
28.7,-1.31,0.942,-0.604,1.73,1
28.7,-2.09,0.928,-0.818,2.43,1
28.7,-2.46,0.986,-0.989,2.83,1
28.7,-2.49,1.02,-0.761,2.79,1
28.7,-2.26,0.921,-0.269,2.45,1
28.7,-1.94,0.653,0.319,2.07,1
28.7,-1.67,0.406,0.888,1.93,1
28.8,-1.49,0.204,1.44,2.08,1
28.8,-1.18,0.0409,1.81,2.16,1
28.8,-0.763,-0.177,1.95,2.1,1
28.8,-0.334,-0.417,1.81,1.88,1
28.8,0.142,-0.534,1.42,1.52,1
28.8,0.531,-0.548,1.26,1.47,1
28.8,0.857,-0.446,1.08,1.45,1
28.8,1.23,-0.315,0.851,1.53,1
28.8,1.65,-0.217,0.727,1.81,1
28.8,1.93,-0.128,0.846,2.11,1
28.9,1.9,-0.048,1.04,2.17,1
28.9,1.53,-0.00386,1.09,1.87,1
28.9,0.973,0.0388,1.02,1.41,1
28.9,0.358,0.144,0.929,1.01,1
28.9,-0.209,0.271,0.69,0.77,1
28.9,-0.614,0.462,0.302,0.825,1
28.9,-1.02,0.72,0.302,1.29,1
28.9,-1.52,0.902,0.869,1.97,1
28.9,-1.72,1.17,1.14,2.38,1
28.9,-1.35,1.51,0.36,2.06,1
29.0,-1.96,1.56,0.125,2.51,1
29.0,-2.16,2.04,1.36,3.26,1
29.0,-2.45,2.48,1.63,3.85,1
29.0,-2.11,3.01,1.55,3.99,1
29.0,-1.94,3.54,0.902,4.14,1
29.0,-1.77,4.27,0.548,4.66,1
29.0,-0.334,4.47,-0.0729,4.48,1
29.0,0.659,4.51,-0.562,4.59,1
29.0,1.35,4.35,-0.362,4.57,1
29.0,1.6,3.82,-0.171,4.15,1
29.1,1.92,3.38,-0.64,3.94,1
29.1,2.11,2.78,-0.529,3.53,1
29.1,1.33,2.14,-0.55,2.58,1
29.1,0.722,1.31,-0.563,1.6,1
29.1,1.38,-0.179,-1.05,1.74,1
29.1,2.37,-1.75,-0.623,3.01,1
29.1,2.48,-3.58,0.791,4.43,1
29.1,2.1,-5.26,0.805,5.72,1
29.1,1.94,-5.76,0.39,6.1,1
29.1,0.974,-5.83,1.05,6.0,1
29.2,-0.117,-6.35,0.178,6.35,1
29.2,-0.979,-6.53,-0.357,6.61,1
29.2,-2.77,-7.24,-0.284,7.76,1
29.2,-4.81,-8.7,0.287,9.95,1
29.2,-5.41,-10.1,-0.0786,11.4,1
29.2,-4.94,-11.1,-1.39,12.3,1
29.2,-4.43,-11.6,-1.85,12.6,1
29.2,-4.06,-11.8,-1.66,12.6,1
29.2,-3.69,-11.8,-0.981,12.4,1
29.2,-3.12,-12.2,-1.12,12.6,1
29.3,-2.59,-12.1,-1.44,12.5,1
29.3,-2.36,-11.6,-1.2,11.9,1
29.3,-2.24,-10.6,-0.655,10.9,1
29.3,-2.29,-9.17,0.196,9.46,1
29.3,-2.2,-7.36,0.862,7.73,1
29.3,-2.03,-5.11,1.37,5.67,1
29.3,-1.62,-2.9,1.89,3.83,1
29.3,-0.926,-1.08,2.3,2.7,1
29.3,0.373,0.779,2.2,2.36,1
29.3,1.73,2.55,2.37,3.89,1
29.4,2.91,4.09,2.49,5.6,1
29.4,3.83,5.62,2.26,7.17,1
29.4,4.7,7.3,1.67,8.84,1
29.4,5.48,8.57,1.3,10.3,1
29.4,6.16,9.54,1.35,11.4,1
29.4,6.21,10.3,1.43,12.1,1
29.4,5.61,11.0,2.3,12.6,1
29.4,4.69,11.6,3.47,13.0,1
29.4,2.99,11.7,3.88,12.7,1
29.4,0.996,11.3,4.43,12.2,1
29.5,-0.379,10.8,3.55,11.4,1
29.5,-1.79,10.7,0.589,10.8,1
29.5,-2.9,10.6,-1.59,11.1,1
29.5,-2.71,10.9,-2.35,11.4,1
29.5,-1.77,10.8,-2.25,11.2,1
29.5,-1.52,10.5,-2.3,10.8,1
29.5,-1.1,10.1,-2.42,10.4,1
29.5,-0.371,9.89,-2.68,10.3,1
29.5,0.113,9.87,-2.59,10.2,1
29.5,0.478,9.81,-1.51,9.93,1
29.6,1.37,9.61,0.0798,9.71,1
29.6,2.33,9.09,0.914,9.43,1
29.6,2.65,8.22,0.958,8.69,1
29.6,2.61,7.51,1.08,8.03,1
29.6,2.43,7.13,2.1,7.82,1
29.6,1.59,6.72,4.08,8.02,1
29.6,0.425,6.07,6.73,9.07,1
29.6,-2.0,4.65,7.36,8.93,1
29.6,-0.818,2.85,1.45,3.3,1
29.6,2.39,1.69,-4.54,5.41,1
29.7,3.14,-0.725,-3.58,4.82,1
29.7,2.39,-3.34,-4.08,5.79,1
29.7,0.436,-8.24,-1.13,8.33,1
29.7,-7.74,-22.3,9.96,25.6,1
29.7,-20.9,-47.4,23.8,57.0,1
29.7,-11.3,-51.8,15.6,55.3,1
29.7,5.54,-31.0,-0.101,31.5,1
29.7,7.81,-15.4,-8.97,19.5,1
29.7,3.04,-7.95,-14.9,17.1,1
29.7,-1.63,-2.41,-14.3,14.6,1
29.8,-3.78,3.46,-12.5,13.5,1
29.8,-5.12,7.46,-11.3,14.5,1
29.8,-6.53,9.1,-9.67,14.8,1
29.8,-6.67,8.57,-7.78,13.4,1
29.8,-5.93,6.49,-4.32,9.79,1
29.8,-3.67,3.41,-2.33,5.52,1
29.8,-1.4,-0.106,-0.702,1.57,1
29.8,0.801,-2.51,1.22,2.9,1
29.8,2.88,-3.89,1.32,5.01,1
29.8,4.77,-4.49,2.3,6.94,1
29.9,4.84,-4.41,3.82,7.58,1
29.9,3.99,-2.2,4.18,6.19,1
29.9,3.57,0.878,3.4,5.01,1
29.9,2.78,3.39,1.88,4.77,1
29.9,1.79,5.0,0.817,5.37,1
29.9,0.842,5.89,0.789,6.01,1
29.9,0.25,6.42,1.03,6.51,1
29.9,-0.243,6.5,0.883,6.56,1
29.9,-0.812,6.17,0.787,6.27,1
29.9,-1.58,5.28,1.08,5.62,1
30.0,-2.79,3.07,1.59,4.44,1
30.0,-3.76,0.31,2.64,4.61,1
30.0,-4.31,-1.9,3.84,6.08,1
30.0,-4.76,-3.9,4.15,7.42,1
30.0,-3.59,-4.27,3.4,6.53,1
30.0,-1.81,-4.15,1.9,4.91,1
30.0,-0.354,-3.59,0.625,3.66,1
30.0,0.973,-2.05,-0.238,2.29,1
30.0,2.47,-0.749,-0.65,2.66,1
30.0,3.52,-0.135,-0.792,3.61,1
30.1,4.1,-0.31,-0.432,4.14,1
30.1,3.88,-0.858,0.383,4.0,1
30.1,3.46,-1.29,2.12,4.26,1
30.1,2.85,-1.22,4.03,5.09,1
30.1,2.08,-0.694,3.91,4.48,1
30.1,1.25,-0.0457,2.02,2.37,1
30.1,0.258,0.433,0.643,0.817,1
30.1,-0.59,0.688,-0.00245,0.906,1
30.1,-1.05,0.943,-0.188,1.43,1
30.1,-1.42,0.964,-0.0835,1.72,1
30.2,-1.68,0.839,0.0773,1.88,1
30.2,-1.55,0.746,0.0453,1.72,1
30.2,-1.28,0.617,-0.0326,1.42,1
30.2,-0.955,0.451,-0.13,1.06,1
30.2,-0.605,0.233,-0.184,0.674,1
30.2,-0.359,-0.0138,-0.117,0.377,1
30.2,-0.204,-0.305,0.189,0.413,1
30.2,-0.186,-0.583,0.666,0.905,1
30.2,-0.283,-0.701,1.05,1.3,1
30.2,-0.393,-0.715,1.44,1.65,1
30.3,-0.481,-0.704,1.7,1.91,1
30.3,-0.544,-0.609,1.83,2.01,1
30.3,-0.56,-0.508,1.82,1.97,1
30.3,-0.563,-0.395,1.83,1.96,1
30.3,-0.402,-0.162,1.69,1.74,1
30.3,-0.33,-0.104,1.49,1.53,1
30.3,-0.381,-0.124,1.67,1.72,1
30.3,-0.442,-0.00913,1.81,1.87,1
30.3,-0.31,0.155,1.65,1.68,1
30.3,-0.0872,0.37,1.79,1.83,1
30.4,-0.193,0.599,2.0,2.1,1
30.4,-0.0293,1.05,1.75,2.04,1
30.4,0.218,1.51,1.13,1.9,1
30.4,0.507,1.9,0.574,2.05,1
30.4,0.748,2.32,0.312,2.45,1
30.4,0.797,2.72,-0.0745,2.83,1
30.4,0.548,2.94,-0.0943,3.0,1
30.4,0.234,3.17,0.0753,3.17,1
30.4,-0.13,3.52,0.434,3.55,1
30.4,-0.106,3.79,0.933,3.9,1
30.5,0.371,3.69,1.22,3.91,1
30.5,0.765,3.45,1.06,3.69,1
30.5,0.737,3.03,1.33,3.39,1
30.5,1.08,2.68,0.0706,2.9,1
30.5,1.48,2.11,-1.4,2.94,1
30.5,1.29,1.48,-1.9,2.73,1
30.5,0.74,0.809,-2.22,2.48,1
30.5,0.277,0.382,-1.76,1.82,1
30.5,-0.00545,0.0522,-1.13,1.14,1
30.5,0.532,-0.293,-1.89,1.99,1
30.6,1.07,-0.517,-1.8,2.16,1
30.6,1.56,-0.549,-1.63,2.32,1
30.6,0.763,-0.658,-0.529,1.14,1
30.6,0.223,-0.936,0.792,1.25,1
30.6,-0.0901,-1.62,0.632,1.74,1
30.6,-0.702,-2.93,0.268,3.02,1
30.6,-1.55,-4.82,-0.616,5.1,1
30.6,-2.97,-7.28,-0.603,7.88,1
30.6,-4.06,-9.95,0.0984,10.7,1
30.6,-4.08,-12.1,0.279,12.8,1
30.7,-3.39,-12.5,0.317,12.9,1
30.7,-2.83,-11.5,-0.206,11.9,1
30.7,-3.1,-10.8,-0.442,11.2,1
30.7,-3.14,-10.5,-1.07,11.0,1
30.7,-2.95,-10.2,-1.79,10.7,1
30.7,-2.16,-10.5,-1.51,10.8,1
30.7,-1.38,-10.8,-2.27,11.1,1
30.7,-0.627,-10.9,-1.87,11.0,1
30.7,-0.499,-11.0,-1.59,11.1,1
30.7,-0.93,-10.7,-0.488,10.7,1
30.8,-1.26,-10.1,1.48,10.2,1
30.8,-0.904,-8.54,2.86,9.05,1
41.1,1.14,4.71,1.6,5.11,1
41.1,-0.361,0.905,0.195,0.994,1
41.1,-3.47,-5.73,-1.58,6.89,1
41.1,-7.52,-14.3,-1.41,16.2,1
41.1,-10.1,-21.9,1.21,24.2,1
41.2,-8.9,-24.1,3.56,25.9,1
41.2,-4.26,-20.9,4.66,21.8,1
41.2,-0.535,-16.9,3.36,17.2,1
41.2,3.08,-10.5,-0.906,10.9,1
41.2,5.48,-5.12,-4.53,8.76,1
41.2,2.84,-3.37,-6.95,8.23,1
41.2,-1.63,-2.34,-6.35,6.96,1
41.2,-3.86,-0.875,-3.23,5.11,1
41.2,-4.91,0.0389,-1.23,5.06,1
41.2,-5.28,0.783,-0.305,5.35,1
41.3,-4.71,1.56,0.742,5.01,1
41.3,-3.85,2.01,1.98,4.77,1
41.3,-2.67,2.52,3.09,4.8,1
41.3,-1.77,2.66,3.88,5.02,1
41.3,-1.05,2.32,4.08,4.81,1
41.3,-0.161,1.88,3.78,4.22,1
41.3,0.918,1.37,3.52,3.88,1
41.3,1.77,1.02,2.7,3.39,1
41.3,2.59,1.0,2.04,3.45,1
41.3,3.37,1.17,1.6,3.91,1
41.4,3.75,1.2,1.11,4.09,1
41.4,3.66,1.16,0.382,3.85,1
41.4,3.24,1.01,-0.56,3.44,1
41.4,2.7,0.904,-1.41,3.18,1
41.4,1.92,0.74,-2.01,2.88,1
41.4,1.11,0.567,-2.45,2.75,1
41.4,0.304,0.344,-2.85,2.89,1
