Time (s),Linear Acceleration x (m/s^2),Linear Acceleration y (m/s^2),Linear Acceleration z (m/s^2),Absolute acceleration (m/s^2),label
173.8002689,-1.016795134,-0.9816071749,-2.574929001,2.93729201,1
29.9,0.25,6.42,1.03,6.51,1
4.447674167,-1.441860815,5.651380121,9.619956136,11.24991626,1
19.9,-1.58,-0.723,-2.23,2.83,1
144.7145821,-4.141294871,9.464100357,1.152604026,10.3946147,1
75.08221067,1.340802656,0.1735845369,-11.38485866,11.46485456,1
217.667594,-1.80097575,0.5437267363,-4.572112166,4.944022863,1
280.2835776,-0.1544012842,-12.90847349,-12.50131432,17.97040309,1
71.01692267,1.073037747,-4.137431031,-14.55471379,15.16935855,1
3.52,-0.259,0.826,-0.843,1.21,1
27.7,-3.32,-8.44,-1.26,9.16,1
253.0408238,-11.08061166,3.642928495,-6.338079466,13.27486851,1
68.88942425,-4.671711883,2.546641926,6.041849581,8.050728127,1
253.723396,-10.69793127,-7.090645941,-10.56059889,16.62074734,1
188.8191554,-0.5800318059,5.25102302,11.02668629,12.22691663,1
8.42,0.617,-0.201,0.171,0.671,1
56.02516767,-0.72191062,-0.3628790805,1.947290627,2.108263968,1
53.056535,0.5911306252,0.2882542831,-0.7966293383,1.033026742,1
153.7976933,18.10836261,0.1254576763,31.68941792,36.49859921,1
11.8,3.46,13.2,7.33,15.5,1
15.3,-1.82,4.6,-2.02,5.35,1
39.7,-1.07,-0.784,-3.25,3.51,1
40.03829392,5.362363361,-6.735541027,4.825149254,9.869372779,1
135.9507394,-0.4921313074,-6.333620964,-11.91482222,13.50258998,1
51.52353229,17.88537085,3.151234084,27.075359,32.6020219,1
7.59,-4.3,4.42,-1.24,6.29,1
268.117677,-11.68771636,-3.840862007,-21.89251802,25.11249251,1
262.0949613,-4.665740414,-0.2614643875,-5.812689013,7.458206943,1
26.8,6.58,1.15,2.6,7.17,1
76.07594617,-1.6082141,-6.040348016,-12.2738857,13.77390384,1
4.78,-0.101,-0.123,-0.217,0.269,1
2.91,-5.32,4.32,-1.45,7.0,1
48.7,-0.518,2.61,-0.786,2.78,1
57.9,-0.695,-0.218,2.59,2.69,1
11.95194429,0.8432181984,-0.9637443696,4.02135006,4.220317102,1
29.45052629,-4.888554414,1.313350563,-10.01407952,11.2207238,1
15.69614271,-7.091953379,-1.784010054,-12.13528213,14.1684003,1
50.79077167,-0.2954799798,1.631491281,-5.680053697,5.917100829,1
42.2,-0.0618,-0.0527,0.849,0.853,1
136.9417086,-0.01575152189,-8.88176504,0.9595448993,8.933460962,1
113.9782847,21.38726246,-6.801457858,54.46206586,58.90493564,1
6.212810083,5.99420296,3.590629244,25.89641531,26.82251691,1
70.64552567,-5.802391482,-0.06085109621,-12.18081674,13.49235881,1
111.0123142,1.472252449,11.93107046,3.184779561,12.43626915,1
208.9548255,1.541686673,-1.599972303,-9.694624495,9.945976738,1
262.2555673,5.291451838,-0.7968037315,5.69115756,7.811762484,1
8.780285208,0.593621064,0.1783792537,0.8416026127,1.045227288,1
162.1759971,2.103304574,0.4395047951,-0.0702987349,2.149882905,1
37.96044583,-5.582446711,19.31046711,2.878065325,20.30618407,1
99.54875062,-0.7527971479,-4.675227814,-1.821931586,5.073844042,1
12.6,-5.35,2.61,-0.459,5.97,1
72.51254767,10.67738065,-12.83929976,46.7789508,49.67015516,1
82.25829958,2.361426108,-4.844305317,-8.677461571,10.21479156,1
47.31767858,-2.455638493,-5.140367972,-30.6970659,31.2212011,1
0.736,-3.34,-2.47,-8.39,9.36,1
56.4,0.675,4.02,1.65,4.39,1
27.23406629,-0.5836316442,-5.243784751,-5.596895181,7.691757932,1
179.6274657,-0.7479905905,8.231564015,-11.72595364,14.34629307,1
252.8501048,8.877118258,4.510270259,32.70952083,34.19149776,1
177.4263737,-6.854909011,-7.121992865,-0.9060073543,9.926399611,1
170.0988655,3.256963438,-18.00233505,-17.50859616,25.3227727,1
57.91065117,-1.216405847,-0.9576862156,-0.7148209441,1.705219943,1
2.191111667,-1.52350958,2.735732694,2.931039637,4.289091765,1
40.54013613,-2.042062883,-1.891731554,0.06105077863,2.784312534,1
12.22297221,-3.633835782,-4.202303842,-13.91297836,14.98115773,1
32.23881758,-0.9665681362,10.18473987,0.9957178219,10.278844,1
34.2,-1.43,-0.414,0.663,1.63,1
16.12167433,-0.1707443067,-0.7297582412,-4.312985787,4.377618886,1
152.432571,-0.4229007491,1.498449875,16.61354181,16.68634077,1
174.3347669,-4.576811573,-2.903365643,15.9615375,16.85667273,1
50.44948567,3.945798186,-1.578198003,-16.81894046,17.34752981,1
79.85129325,-1.241023283,6.091139855,-0.05197151452,6.216496164,1
140.3316831,4.893095654,-12.53092579,-12.62179854,18.44657921,1
191.3386198,0.09221322209,-6.236509822,-24.67425135,25.45036812,1
39.5,-2.56,-4.79,-12.3,13.4,1
303.8224312,7.987230508,-8.823284698,38.50242286,40.2999103,1
32.85043321,3.674890838,8.523376329,5.878101815,10.98657579,1
160.6113876,5.460218269,-2.972416874,-2.70136393,6.778393077,1
137.295786,1.369213984,-8.988838668,-12.30315569,15.29841846,1
189.9379167,-0.4523400182,1.592164662,0.286643229,1.679810747,1
17.27503642,-0.6777859958,-2.747840524,-7.932763694,8.422515136,1
114.9720145,6.721881346,-4.403603597,4.662915332,9.290758465,1
32.35900104,-0.9200523663,1.120543231,-1.724657307,2.25312146,1
91.11411275,-7.507855303,-4.474979973,8.905315871,12.47789997,1
227.0729899,6.771793179,-2.300858309,0.4604588771,7.166809206,1
252.6694238,2.541342595,-13.90175755,-18.89875998,23.5983138,1
6.674153292,0.7845236284,-0.3566421479,2.432431186,2.580579862,1
50.37875004,3.588057639,7.325258453,14.51812659,16.65261447,1
184.9531901,-6.092587041,4.30156676,-1.046450458,7.531145464,1
195.2135123,-5.523224941,-2.766178561,2.662945092,6.726740232,1
2.847475833,-6.948486096,-7.694127129,-6.150289119,12.05433978,1
26.25120192,0.06297319695,-0.9832193984,-0.5474268544,1.127103442,1
148.4375844,-3.804947239,-1.102775005,37.54196624,37.75040351,1
125.357607,-0.001681037955,0.3510539639,0.5902524465,0.6867602654,1
55.3,6.69,-17.8,1.96,19.1,1
248.0821315,-6.147254414,-3.591002297,10.04248997,12.30998128,1
256.6243338,-10.66753628,2.000055317,-2.068976448,11.04885582,1
103.339841,1.272413621,-7.021339479,-8.398392679,11.02049201,1
31.7,4.3,0.613,6.39,7.73,1
24.5,1.28,-0.298,1.21,1.79,1
107.8251874,23.68142454,-15.97721739,49.78704855,57.40062323,1
227.8258251,18.25704561,10.65506299,45.81726625,50.4586164,1
277.6636913,-1.768280751,-1.574604304,7.95725768,8.302056692,1
40.4,1.59,0.508,-0.221,1.69,1
139.9004137,-0.471797615,10.59282991,0.2087520307,10.60538617,1
42.1,-2.01,-7.48,-2.41,8.11,1
36.7,0.0917,-1.46,1.35,1.99,1
25.1,4.89,1.78,4.27,6.73,1
9.47,4.14,0.131,6.97,8.1,1
44.1,2.31,2.57,-3.52,4.93,1
87.32305608,1.81485704,10.52274635,2.906741825,11.06666368,1
131.9269482,-0.1040737143,0.08385491967,-0.2337284124,0.2692433032,1
264.9055618,1.714405383,-0.2888970383,-9.168470396,9.331853873,1
2.31,2.03,-5.75,0.61,6.13,1
15.5,1.46,5.63,-1.32,5.96,1
46.2,2.97,0.653,2.79,4.12,1
206.3349769,-0.6443894043,-1.23819747,-8.567817507,8.680775743,1
128.617205,1.973395522,4.09377338,2.39519027,5.137139944,1
66.16868204,-12.11682013,-8.991040145,-14.14754292,20.68354669,1
64.75335646,-1.128098638,3.637003804,-5.979332321,7.088922218,1
273.3474063,16.93763309,-9.534556382,16.40240119,25.43285168,1
170.8515709,-1.044587023,0.9673002076,-3.117351809,3.427056177,1
49.0,-0.965,-2.3,1.11,2.73,1
49.8,-1.24,-0.357,-1.46,1.95,1
106.5303262,10.7870978,-12.07165156,80.5970008,82.20682933,1
283.836987,0.4225673117,-3.106477742,-11.59205124,12.00851444,1
84.15381958,0.1726348212,1.907255911,1.914669011,2.708022399,1
37.17748767,-0.9922356588,6.113051126,-0.04776239634,6.193238807,1
214.8670594,-8.945883853,6.898049768,0.3406067437,11.3016787,1
45.04912458,0.03072408501,-3.671870166,-15.18022553,15.61802873,1
64.9,0.285,-0.801,0.467,0.97,1
173.8931082,-3.297674384,-6.97002256,1.931334161,7.94895732,1
48.54229642,-6.536018826,3.836226043,-15.21618473,16.99907204,1
11.5,1.41,3.63,-2.1,4.42,1
50.2,0.163,-2.85,-10.4,10.8,1
240.7745928,-9.699214559,2.829730487,-8.999978784,13.5307707,1
45.0,0.447,-0.069,-0.418,0.616,1
107.8653384,3.863446293,-7.203593098,50.38069063,51.0395137,1
142.1640493,-0.4677030656,-6.429314741,-4.266536676,7.730340834,1
130.4300257,-5.938484842,-16.66083175,-11.35700135,21.01976205,1
42.81879292,2.726567184,-13.66682578,0.2504373793,13.93840071,1
27.3,-1.4,-1.83,-0.289,2.32,1
168.4043552,1.534841191,11.42887533,0.8801041889,11.56501241,1
118.1733188,-0.6506813738,-1.369374636,1.516112852,2.144101519,1
16.04747571,2.012201153,-4.329836586,-8.338231847,9.608462347,1
69.41093833,3.888408934,-10.77822407,-1.240891428,11.5251746,1
126.099793,0.3801395494,-0.1594673118,-0.1632928526,0.4433965001,1
71.737699,-2.036740748,10.37362481,0.9338538417,10.61284541,1
227.1332169,24.63343077,9.322787772,31.93137337,41.39242549,1
166.7563194,-1.768132524,-1.614326195,-1.708026656,2.941036678,1
6.5,-0.18,-0.000953,-0.00227,0.18,1
173.6297659,3.76162668,-11.17476352,12.98605201,17.54031704,1
133.9228225,-2.346799444,1.319527123,2.491822525,3.668487285,1
43.0,1.61,0.814,2.4,3.0,1
1.06,-3.13,-2.39,0.0956,3.94,1
131.1025497,-8.386456758,3.157019612,32.12300767,33.34946854,1
19.6,3.97,10.5,-3.87,11.9,1
218.028953,7.088157367,-7.222448614,6.914555873,12.25629723,1
219.5848073,1.729464741,-5.372827538,-7.500160952,9.386732038,1
67.54385796,7.334024014,-16.28957098,44.16155931,47.63802422,1
127.6395556,0.4511771531,-0.1196963051,16.85496632,16.8614287,1
38.6,-0.667,-0.197,-0.838,1.09,1
36.3,-5.93,1.08,0.37,6.03,1
54.3,-1.17,0.268,-0.26,1.23,1
87.29296808,-3.08758685,9.58860395,3.545191701,10.67908715,1
97.94810767,-2.117045969,1.785891249,-1.213682579,3.023957108,1
148.9570686,-0.2146135355,-7.490898378,-2.204771014,7.811570438,1
55.42341767,0.234265735,-0.4220643049,-0.4554349494,0.6636563156,1
4.768610917,1.485063991,-0.4959982538,-5.125642344,5.359443885,1
127.1477092,-1.754337773,-4.013500757,-0.8608346897,4.463958525,1
13.98544808,-1.547366074,1.073798616,12.63859876,12.77816747,1
26.84841554,9.017105863,-13.95998413,4.164605674,17.13281341,1
252.3783258,-9.377122439,2.936788912,-0.4958275151,9.838749884,1
17.8,-0.933,0.668,0.66,1.32,1
7.314369167,18.32584044,-0.01460276328,50.24728523,53.48482321,1
285.422972,16.70847018,-9.919839946,44.97262426,48.9909495,1
50.63016567,8.350841952,-1.135247736,9.583035062,12.7616578,1
145.1358211,4.05983117,-2.795326347,-14.15687508,14.99043664,1
91.69462746,14.56164157,2.61649218,10.60353031,18.20226062,1
186.4476042,3.253363307,4.868989922,3.59315758,6.870386966,1
40.7,-1.4,-1.16,-0.216,1.83,1
40.2,1.27,2.85,-1.29,3.38,1
10.0,0.869,-0.213,-1.36,1.63,1
217.316273,-4.433557713,-5.759395151,-6.564858463,9.794101957,1
53.70843,1.474678313,-1.478781158,5.368554393,5.760455373,1
0.165,1.03,-2.03,-1.97,3.01,1
182.7767634,1.072734788,11.39418029,0.7469057858,11.46891332,1
25.6,0.352,-0.379,-1.45,1.54,1
280.9862283,2.135777232,-11.47825506,-7.767941794,14.02329503,1
244.3179455,-3.129191251,-1.633525235,-3.328534527,4.851740376,1
163.4438888,1.045157053,-6.331784939,-9.727124489,11.65336023,1
53.6,-4.11,-5.8,0.114,7.11,1
194.430234,0.4594518404,3.84527227,27.21215344,27.48633315,1
251.033255,11.03336381,-3.566096374,13.46070441,17.76633681,1
41.54305792,-2.293384252,-1.574493792,-6.530468064,7.098285368,1
128.3622665,-0.2057439306,-11.87033426,-9.508061478,15.21020707,1
8.88,-0.473,2.09,1.18,2.44,1
22.3,-3.79,-8.6,-1.14,9.47,1
20.34376717,3.494544581,1.59120952,-10.20533493,10.90379065,1
57.8,0.24,-0.068,2.61,2.62,1
53.54113567,2.333835436,3.553296819,12.81820885,13.50478375,1
47.64078967,1.279359383,1.511862219,3.02559847,3.616176696,1
168.2017442,-5.444090479,-11.51862541,-11.44012888,17.12289115,1
169.2356253,-5.381150465,-10.84114011,-2.945067108,12.45634455,1
24.5,0.852,0.405,0.196,0.963,1
205.0300703,0.98965404,-0.1503922869,-8.536792765,8.595281477,1
30.9,-0.235,0.649,-0.708,0.989,1
62.93651754,-0.3350347857,0.3238851687,-11.15098757,11.16072013,1
57.7,0.0711,-0.86,-4.85,4.92,1
120.0688842,-0.9579104564,1.729003542,-1.303018094,2.36746739,1
173.7100019,-0.1494329416,-4.74664746,2.823318138,5.524863584,1
102.196496,-2.581517936,10.54498097,-1.211131439,10.9237218,1
21.1,1.06,10.3,-3.92,11.1,1
269.4125615,-0.7923556083,-1.598292398,-1.881144,2.592502411,1
49.7,-0.959,9.64,-6.34,11.6,1
188.5280624,-2.807268115,-10.38350544,-9.378376082,14.27066492,1
133.2809335,0.8820393249,10.32878134,0.3560673666,10.37248772,1
0.356,-1.19,-0.723,7.4,7.53,1
15.39957071,-1.083957422,-1.848844858,-0.7757039076,2.279233984,1
200.3524887,-2.500725203,-15.12812917,-19.60852542,24.89193018,1
22.25956517,1.396778343,4.169788646,-1.764555783,4.738331373,1
127.0573702,1.484425913,2.750201045,21.13545329,21.36526414,1
180.0963987,-2.349175606,7.529242664,4.205930285,8.938566478,1
41.3,2.13,-0.669,1.38,2.62,1
25.93026592,-0.1610190532,0.7781059438,-2.129362398,2.272786883,1
17.71632267,1.259372723,3.010790981,8.031496854,8.669245855,1
250.1900779,22.86500354,-0.05113477796,19.64956352,30.14823956,1
53.5,1.03,-0.573,-1.34,1.78,1
34.8,-4.05,-6.2,-8.82,11.5,1
303.0695884,1.792011968,-0.4934750341,-2.794445756,3.356151306,1
60.33059225,-0.04591862306,-0.07201869339,0.002517226338,0.08544909929,1
221.5321358,8.897874704,2.967100293,17.64719622,19.98497918,1
153.2697639,0.02678346366,-0.2092654163,0.05522227407,0.2180799576,1
58.3,0.697,0.662,-1.48,1.77,1
79.06901625,-0.1122251715,-2.38072192,-32.30051043,32.38832205,1
132.588897,-1.105304583,-4.410158325,-0.08373549029,4.54732958,1
114.9939901,1.304161079,10.34440277,0.07695871353,10.42657314,1
10.2,0.0589,0.385,-0.825,0.912,1
50.8,0.404,-18.5,-4.66,19.1,1
19.27973258,1.744543102,1.190379671,10.63602563,10.84368367,1
90.17136183,-2.224817901,0.2310145734,-10.05323949,10.29906825,1
42.2,-3.67,-2.88,-8.45,9.65,1
66.53004204,-9.475341044,-10.43910193,-8.137577625,16.27811742,1
5.83,-1.33,2.37,0.211,2.73,1
40.2,-2.06,2.65,-0.786,3.44,1
78.14633246,1.320624061,-1.698363109,-9.714351831,9.949729477,1
3.32,-1.13,-12.2,-0.526,12.3,1
255.1487704,-4.374248235,5.402566477,4.462897287,8.260703624,1
12.3,3.99,5.95,8.19,10.9,1
79.92149746,-2.293692254,6.171642566,2.28693375,6.969954239,1
50.43892504,-1.208352111,0.2994473156,4.23965878,4.418652519,1
55.23752683,1.885680855,0.09262486607,14.04879164,14.17508089,1
23.0,1.07,0.127,0.0619,1.08,1
191.5895628,-2.932616339,-0.3299782598,18.81603591,19.04605817,1
6.26,0.862,0.039,-0.25,0.898,1
20.4,-0.124,-0.0507,1.3,1.31,1
69.66166733,1.056797617,10.6669422,2.117183232,10.92625013,1
58.8,6.7,1.0,7.78,10.3,1
70.45396858,-0.581855187,6.33239071,2.416002849,6.802558146,1
218.7617109,-3.244508868,-12.98495156,-10.00474035,16.71019552,1
61.8,-0.283,0.604,1.23,1.4,1
157.4921992,-5.073233165,0.1696095997,-1.152122508,5.205175159,1
9.482583458,8.533282682,-10.02749069,13.61517148,18.9404429,1
98.19479275,2.825792679,9.86625957,1.088327047,10.32049601,1
75.07217267,0.971919508,0.922087782,-11.395814,11.47429519,1
58.23883029,6.826120244,-4.738141223,12.88264166,15.32998226,1
112.1614644,10.2040462,4.580154426,12.714657,16.93407441,1
134.1038102,-15.11730247,7.894450398,27.77314701,32.59145403,1
31.0,4.06,9.4,-0.544,10.3,1
62.1,0.559,11.4,2.06,11.6,1
148.7989404,0.7936686737,-0.5494075987,-2.936670506,3.091244464,1
268.8303654,-2.413950184,-4.645907536,-12.3467689,13.41097739,1
58.59015329,-0.3751966788,-2.6455812,8.595806959,9.001542629,1
229.1106616,1.599720581,-11.83255774,-28.67714526,31.06359909,1
33.10208258,-5.096703304,-7.133565089,0.1265945212,8.768133303,1
21.0,-0.374,11.1,8.74,14.1,1
188.9295704,-2.369085083,-5.131363844,1.185588462,5.774866149,1
130.3723717,2.053943841,10.00523619,1.050134203,10.26772703,1
44.2,0.282,1.34,-4.16,4.38,1
73.77730342,1.928927447,-5.70561597,27.44037027,28.09357106,1
53.19984967,0.05091097578,2.990006761,3.418691576,4.542046284,1
295.0292307,5.901551489,2.160338315,-1.33274183,6.424295478,1
22.2,1.16,-0.238,-0.613,1.33,1
6.94,0.936,1.53,-0.568,1.88,1
134.1640362,-9.112074001,17.61172935,15.27958492,25.03335013,1
206.5457689,-2.326917741,-2.718168828,-0.2973882186,3.590463439,1
170.1691295,-2.203816164,-16.83539335,-9.352610911,19.38449396,1
55.25292167,0.01180450514,-0.2418250519,-1.332656461,1.354471094,1
94.67450637,-1.653609105,1.901399925,1.49069866,2.927785382,1
43.06748925,-0.005658569857,3.431005227,7.952620254,8.661177621,1
175.8103061,-4.646218607,6.868659323,7.983504077,11.5109585,1
97.71724067,1.37755226,-1.474731522,-1.957677621,2.811580509,1
67.16242204,17.45173783,-1.507061655,16.54827518,24.0972986,1
303.4711042,3.90585264,-0.4334298304,26.03391844,26.32885215,1
94.78482837,-0.6146501,0.3358447713,-0.7649878617,1.03720436,1
61.0,-0.428,0.504,0.111,0.671,1
97.48271208,-0.1280648401,2.223197345,-0.9582557344,2.424306311,1
57.9,-0.623,-0.267,1.2,1.38,1
150.2709359,-1.956304695,-3.902229413,0.3278066039,4.377439848,1
47.19950667,0.8135325424,-0.5820240985,2.96169425,3.126055035,1
109.568081,-2.048534289,-0.4620633531,-4.911710849,5.341806693,1
113.6068907,5.76643286,-4.89418499,2.978291572,8.128653968,1
85.30718046,2.310793898,8.838374607,-0.3128046951,9.140814018,1
55.0,0.774,-1.12,-0.961,1.66,1
19.95284146,-0.9859620349,1.66028911,3.600928822,4.085996751,1
111.5137842,-2.208157576,-11.19338573,-3.466044374,11.92398036,1
43.62912325,-1.809164191,-0.8875436014,-8.345971221,8.585804816,1
196.3574752,-0.7431122585,-4.28511825,-3.295652125,5.456718535,1
35.22735842,-2.793620714,-1.981545371,-7.141562911,7.920401477,1
50.6,1.9,0.818,0.959,2.28,1
59.32476538,1.348194413,-4.299348326,-4.65102268,6.475649479,1
5.360331917,1.119108544,-0.7271167615,3.654446633,3.890511909,1
150.6319989,3.077409186,-1.747389527,2.465484327,4.313053492,1
59.9,-4.64,-0.916,0.74,4.78,1
20.72521317,-0.09499064952,3.999526204,-4.426847448,5.96675887,1
237.1509405,-0.7810348141,1.540992462,-13.41000438,13.52083173,1
25.79988592,0.5995166288,-0.6241388154,-1.219302923,1.495215392,1
49.7,0.298,-0.339,-0.36,0.578,1
15.26919071,-0.8499407423,1.087990539,2.688362646,3.022154264,1
24.7,1.01,3.23,3.14,4.61,1
246.3455882,-0.6897094917,-1.458560609,23.68413297,23.73902383,1
86.56083387,1.34568318,-0.04690957993,0.2911387146,1.377615869,1
265.0059398,-1.332176112,-1.812397994,7.393645148,7.728225428,1
34.99668642,2.148701771,2.39927762,3.435150903,4.708897336,1
92.83914771,-0.1913141719,-7.19571339,21.01934396,22.21773419,1
36.1,-4.37,-5.61,-3.17,7.78,1
178.9621395,-2.942975559,-6.19778956,2.666863604,7.361104676,1
251.013179,24.06594679,-3.78797862,33.16718473,41.15313743,1
23.3,0.9,1.42,0.83,1.87,1
42.07460017,-0.05668115437,0.04901516229,-1.716843088,1.718477648,1
35.3,1.07,-0.25,0.0955,1.1,1
106.02771,2.4463977,9.835980349,3.953083817,10.87925746,1
175.8203431,-5.89596155,5.629008089,5.226947109,9.683443125,1
27.5,3.38,1.46,1.25,3.89,1
33.9,1.16,0.843,-0.224,1.45,1
44.4,1.02,-2.83,5.01,5.84,1
28.31722317,-0.926031729,-0.5650190797,-2.27777818,2.522906015,1
31.6,2.44,0.119,-3.71,4.44,1
133.3711985,0.6932888648,10.11980537,0.8608482114,10.17998869,1
54.79586292,7.294503853,2.968208633,19.88359014,21.38637898,1
34.71819371,17.9561397,-34.78399833,1.758140802,39.18469793,1
10.2,0.116,2.11,0.228,2.13,1
94.23321737,-6.890095215,0.4299767572,-1.000014794,6.975551711,1
9.943673458,-1.687253984,-3.147778965,-8.106897869,8.858731934,1
115.6759901,-0.3811023666,-5.115183429,1.035191059,5.232777566,1
20.0,0.477,-0.391,0.631,0.882,1
5.136126708,-33.61110769,-8.930852416,-6.710450624,35.41887678,1
207.7502977,-2.348991711,-3.208555216,-16.03659704,16.52225872,1
29.00658633,5.825586217,-43.02385955,-1.007003387,43.42814757,1
71.747728,-1.444598043,9.331984858,1.298858531,9.532042718,1
18.19772567,0.4390824068,-1.016455118,-3.002925307,3.200552259,1
261.0209114,-0.7718172634,1.953382841,2.395369779,3.185781347,1
235.2738709,-1.367853922,0.6827437037,3.492338426,3.812294716,1
21.1,-1.4,11.4,-1.55,11.6,1
85.60805746,1.342416049,6.157588198,1.438727292,6.46435685,1
188.7890424,-4.646976407,3.14784036,22.58874599,23.27562532,1
61.28336642,-0.09395554617,0.06962893635,-1.248051344,1.253518245,1
27.30012558,-0.1595295846,-4.233183573,1.705236365,4.56652208,1
66.99391887,-5.268902051,-7.903810036,3.771947601,10.22052497,1
169.8285541,0.1196639992,-1.480776374,2.423304852,2.842432857,1
13.92527308,-2.077970342,-0.09881224349,3.390823161,3.978115925,1
14.6,-5.53,-16.0,13.8,21.9,1
207.3989767,1.227020371,-1.554316805,-16.96312695,17.07832415,1
28.8,1.65,-0.217,0.727,1.81,1
30.04049971,-1.746499873,20.81266827,1.150275958,20.91747014,1
109.7122717,-2.622801325,-2.508699344,8.945810178,9.654023976,1
33.3,-4.06,-2.41,-2.39,5.29,1
304.9767909,-3.41495959,-3.455129377,-19.0406111,19.65056587,1
27.3,-1.39,1.44,0.469,2.06,1
291.8371808,2.124579668,-1.15328245,-3.586892581,4.325470791,1
267.676011,-1.096317267,-1.52178699,-14.72652954,14.84548482,1
5.86,-2.19,-0.0216,-1.14,2.47,1
116.3078437,2.793508447,0.319425205,0.5054573677,2.856782991,1
13.2,-5.95,-2.49,0.524,6.47,1
30.8,1.92,1.31,3.0,3.8,1
117.7825635,-2.042131734,-3.264290291,-11.6385483,12.25894366,1
239.1083155,-6.001648804,-3.879441352,-12.45847762,14.36257352,1
10.4,-4.79,-12.5,-0.781,13.4,1
14.1,0.176,0.0253,0.0128,0.179,1
14.8,3.71,-1.78,1.76,4.48,1
121.6033911,-0.3388059475,7.811609386,1.782071994,8.019464524,1
152.2567819,-1.358240807,10.96048412,2.37986808,11.2978229,1
113.1586061,4.407024218,-5.935785182,-2.680518022,7.863878499,1
238.0744193,-0.5505823043,0.6686501598,-0.06964092314,0.8689555617,1
66.11849383,-9.581408951,-13.83478822,-14.14595131,21.98437402,1
34.7,-0.186,-1.63,3.83,4.16,1
52.39461425,3.355874938,1.74339354,-7.991462138,8.841085043,1
105.616506,0.004240546972,-22.00819466,-11.07344765,24.63700252,1
137.888007,-8.629715547,-1.875047109,25.64944296,27.12713985,1
180.7407512,-0.1992352487,0.2390406078,0.1910834992,0.3651684545,1
153.9884083,3.196069072,-8.027406142,-6.139212738,10.59924714,1
85.43110392,1.919445017,-1.981758794,-0.7578377402,2.861110821,1
12.4,0.834,2.41,-0.948,2.72,1
26.2,0.684,0.326,-0.978,1.24,1
121.1821531,1.195246016,9.481069561,0.7056548488,9.582131382,1
202.3198833,-2.32190697,-3.785923323,-3.861045134,5.884907554,1
33.29280308,-3.509175484,6.655495568,2.478662782,7.921723488,1
13.2,0.583,0.267,-0.509,0.818,1
59.6,1.18,-0.432,0.675,1.42,1
18.6,-0.212,0.218,-0.62,0.69,1
24.16826192,5.235868206,11.14821015,1.57854372,12.41727448,1
34.95656942,0.2846592687,-2.881081904,1.768319051,3.392435128,1
262.4262109,-2.067128874,1.00481777,-0.3380789924,2.323139672,1
90.99376175,0.4758809084,8.773329595,3.229658403,9.361007864,1
21.8,-2.28,0.123,0.653,2.38,1
59.2,0.116,-11.4,-1.31,11.4,1
175.9709091,-2.065786499,-7.843857949,-2.884808042,8.609047498,1
278.2659633,-3.992386754,3.360809111,6.703841516,8.495627166,1
51.7,-0.0355,2.17,0.481,2.23,1
184.874339,-5.785288961,-3.884520535,14.61421505,16.1905636,1
277.2521395,2.271639773,-1.093192807,1.194294966,2.789580298,1
41.7,0.00453,0.035,1.22,1.22,1
49.32568817,0.03586623609,6.646925304,8.761964947,10.99795127,1
135.1678027,-5.930227404,9.741157222,10.08939867,15.22674314,1
1.8,0.46,-0.155,-1.8,1.87,1
42.9,2.18,-0.845,2.05,3.11,1
83.19269467,8.012107487,-1.640879278,-8.356296819,11.69247825,1
27.3,-2.92,1.06,-1.01,3.27,1
13.0,0.768,-0.314,2.28,2.42,1
13.63833879,2.832053293,2.618618812,-6.291444998,7.379699892,1
16.1,-5.46,7.16,-9.2,12.9,1
177.3761857,1.053395415,-8.623525684,-12.27894003,15.04151606,1
13.4,-0.34,-1.59,0.205,1.64,1
43.87985225,-0.5126215225,-3.599523444,-6.874189619,7.776492318,1
32.9,5.59,3.57,4.24,7.87,1
184.65351,-0.1314474544,-6.627848178,-8.538004308,10.80940181,1
97.73731667,0.7177626052,-0.6121461761,-1.124007926,1.46741266,1
186.2871302,2.527397862,3.736014122,-8.546743557,9.663972625,1
186.04875,1.429591017,-7.542367909,12.89149902,15.00405916,1
245.2113121,1.592120516,-1.922156663,-13.88182206,14.10441483,1
18.99003567,-1.111857704,-0.5154978409,7.166600688,7.270634842,1
1.56,4.4,5.45,6.63,9.64,1
25.76979892,0.7053328134,-1.495516035,2.425805122,2.935744041,1
60.58132225,0.372056322,-0.01959314257,0.05020770192,0.3759396378,1
65.27893921,-6.895581073,5.70562708,4.546999544,10.03884573,1
161.3761283,7.722135292,-9.02779165,50.5269178,51.90473791,1
19.8,-2.32,-0.792,-3.56,4.32,1
99.03217717,-1.466024726,-0.7984703341,0.2106313258,1.682601832,1
155.9256767,5.551544176,-4.557138616,-5.524035366,9.061022118,1
155.7570889,1.170964649,10.68605324,0.3142878413,10.75461152,1
15.51992071,0.4567431177,-1.183343716,-3.506552423,3.728917607,1
5.738404667,-1.894127743,-0.5486755273,-2.330676624,3.053001517,1
47.64892758,-4.82641693,-0.7783056993,-7.697575817,9.118812071,1
192.673635,-0.05153253481,11.11270936,15.90969375,19.40652777,1
53.7,1.74,12.6,1.92,12.9,1
6.433452083,0.4137524514,-2.932804619,-6.778549637,7.397382591,1
65.7,-0.477,0.25,-0.257,0.597,1
5.37,4.93,12.5,5.48,14.5,1
60.5,1.38,-16.3,2.78,16.6,1
17.85673167,0.3903162628,1.977880628,7.45307157,7.720921862,1
60.08578554,-1.954811755,2.332857489,0.9554303598,3.190040789,1
43.2,2.69,0.512,3.37,4.34,1
71.73964054,-2.514163567,1.369763769,-4.06504104,4.972105175,1
126.9770692,4.343062695,3.186374389,12.83725557,13.92157699,1
39.43601992,-1.274467602,7.211461111,0.5739520904,7.345669475,1
92.37719017,8.627021735,0.6726066783,13.05881827,15.66558771,1
59.4,2.14,-0.544,-1.77,2.83,1
120.3120572,-4.081082876,-7.993292901,-12.83596451,15.66237382,1
266.9633227,2.138518553,3.087204149,-12.19032899,12.75571291,1
143.9407152,-0.6674798396,-11.60867604,-15.24703114,19.17495364,1
34.8,0.501,2.23,-0.802,2.43,1
209.1856935,19.00987813,-8.419494111,20.88001182,29.46588267,1
173.3912242,-2.516995958,-4.890283143,-4.611353415,7.177375439,1
43.10760525,1.775305889,4.863150893,7.764781959,9.332405182,1
192.6358912,0.639901447,-2.253363131,0.7813613811,2.469340979,1
59.69584437,1.132622629,-2.316876172,-3.349339505,4.227153219,1
271.1491121,1.162741052,4.422569625,-7.660028506,8.921161671,1
76.69828692,-0.3719864112,2.256989281,2.023811384,3.054208085,1
194.3008129,-0.1187803388,0.3319499409,2.491084607,2.515909786,1
189.0352498,5.60696701,8.615641299,1.143856884,10.34290881,1
36.2,-0.396,-4.93,-4.97,7.01,1
280.8557363,5.317734488,-10.2326882,-5.002870696,12.57039869,1
37.11285108,1.178945733,-1.304754864,6.069854236,6.319448452,1
15.87094333,-0.5544119382,0.3507452309,-0.4536708444,0.7976290173,1
288.8258155,1.956878892,-1.922092344,-4.49223803,5.263460506,1
41.31238692,1.995486741,-2.2978008,0.6663399249,3.115423686,1
256.6142958,-9.720802479,2.570002722,-4.621424074,11.06600539,1
111.2881864,1.393906922,-13.00043967,-15.21389263,20.06033242,1
260.4487544,0.1871787286,0.2151785593,1.448961673,1.476762547,1
103.870341,44.74409168,-7.087924647,80.87582411,92.69935998,1
90.90165017,0.4085967055,-4.413731267,-15.82812509,16.43707756,1
258.6419412,-0.648523605,-1.638879822,-9.006559825,9.177397769,1
91.79500446,2.22851071,2.305523949,1.734844326,3.645735248,1
295.7017691,-3.470320736,-5.614245624,-11.80640198,13.52604922,1
172.0651511,0.186768254,-0.8942029953,1.486256677,1.744545868,1
39.31927708,0.8935795359,-0.02411420971,-1.284943181,1.565293858,1
2.85,1.19,2.1,0.113,2.41,1
30.43339171,2.054888459,0.6394398093,-0.2819001138,2.170464817,1
169.1465431,1.021190194,-4.076982223,-1.079203051,4.33927329,1
300.9214763,3.220510141,1.014847573,-1.353715208,3.637876583,1
23.06407796,-5.157699119,-18.19800978,-9.004972891,20.94896076,1
234.7017159,-1.210640565,-0.5993834585,-6.863675156,6.995351868,1
35.75210167,-7.872605785,10.04350505,1.420784526,12.84011465,1
79.60922817,-3.867834336,-0.8070926383,-6.633185517,7.720796013,1
199.6699232,3.164165494,-1.868505244,-11.31057095,11.89253003,1
27.8,-1.95,3.43,5.58,6.83,1
51.8,-1.36,-0.119,0.57,1.48,1
120.1491202,4.906997994,3.706697352,-2.917034094,6.806417742,1
56.84755937,2.127977777,0.4971409459,-6.202369099,6.576079454,1
153.225546,2.114207,-4.660427341,1.143471553,5.243756424,1
198.1843402,2.885148058,-12.58037102,-8.313271837,15.35253409,1
27.4,0.357,0.932,-0.665,1.2,1
253.783623,-9.664748147,-4.749873661,-13.87099301,17.56055534,1
14.07571108,-8.201945529,1.928124039,17.36080895,19.29733816,1
41.4,0.713,-0.82,-0.00647,1.09,1
26.6,-1.32,12.3,5.42,13.5,1
62.24391054,5.407134322,-1.916743019,21.67578981,22.42210671,1
168.6149762,-34.03141256,-133.1053061,-5.885361718,137.5128977,1
252.1976445,-10.77132435,6.578687713,-0.6520083994,12.63826235,1
9.3,-2.98,-0.887,-4.93,5.83,1
48.9,4.12,2.83,-1.94,5.36,1
26.1,-0.365,-0.326,-1.3,1.39,1
234.7920559,-0.0125223605,-2.219959303,-4.562701072,5.074112454,1
15.60579971,-2.090056683,-1.472791124,-9.034566234,9.389400283,1
4.35,1.99,-1.64,0.00409,2.57,1
55.0,0.165,-8.26,0.115,8.26,1
294.2763883,2.113072932,0.2599468888,-5.025600577,5.457958479,1
44.7,-0.0586,0.419,-0.117,0.439,1
15.2,1.7,0.0144,1.73,2.42,1
118.9857042,-2.522677113,3.394792251,-0.9824583833,4.342089211,1
195.7852023,-2.314065415,-1.081905634,2.812688484,3.799557219,1
22.8,-6.1,5.28,-2.22,8.37,1
46.4,2.35,0.693,0.324,2.47,1
69.77198733,4.795213264,10.36486334,-2.158049423,11.62246272,1
184.2520021,-4.404192996,-9.196577961,-6.483103278,12.08323592,1
4.38,2.82,10.2,-2.63,10.9,1
64.2,0.633,-2.46,-0.227,2.55,1
190.4553012,-7.344610983,-3.921630182,38.51789693,39.40749774,1
70.62446358,4.423679135,-1.509485033,-5.303656147,7.069388281,1
10.8,-3.08,-25.3,12.7,28.5,1
174.5123704,-2.313319603,4.122503967,0.03625392476,4.727346072,1
102.8565347,4.576480913,-1.342269284,-1.943598695,5.150091287,1
125.788877,0.335208448,0.03482747823,0.009727427959,0.3371531992,1
94.57544504,-0.2656307114,-1.070762157,2.848476368,3.054653645,1
2.61,3.03,13.0,-1.48,13.4,1
28.6,-1.94,-6.29,1.61,6.78,1
72.60020487,-0.9315612946,-1.805913724,-1.991675087,2.84532959,1
15.10872271,-0.06855516829,2.964176101,11.23351401,11.61821315,1
96.06857983,0.7342967038,8.69911615,1.96270915,8.947962932,1
15.2,0.0453,-0.147,0.571,0.591,1
4.69,-0.319,2.1,5.13,5.55,1
54.029363,-1.079071562,-1.187412063,-6.741901628,6.930193388,1
165.0845676,1.895951782,10.27769773,1.862646918,10.61579754,1
86.58089187,-0.9402106422,-2.633478341,-1.663080279,3.253465881,1
247.9416025,-8.162951033,4.523598402,-4.42601422,10.32890672,1
2.67,-6.01,-0.194,1.09,6.11,1
158.0939712,-0.1723835188,-6.72796245,-0.5241976207,6.7505539,1
154.349764,4.321386482,-2.800555512,24.83280211,25.36110315,1
3.69,-1.57,-12.7,-2.99,13.2,1
41.9,0.365,1.06,6.13,6.23,1
196.8784355,-0.08091435492,0.1277324259,0.4869607973,0.5098956007,1
108.1238495,3.913446711,7.286321844,2.97345037,8.789024876,1
192.3650912,-0.06880857199,-5.162679192,-12.24659791,13.29049102,1
188.1767427,4.597629122,-7.197199752,30.49295364,31.66635595,1
211.4943745,-0.5681328683,-3.391226327,-16.33669252,16.69463127,1
75.80953533,-0.7815481997,-4.397064655,-0.3630208755,4.480711922,1
48.3,3.22,0.361,8.92,9.49,1
30.0,-3.76,0.31,2.64,4.61,1
87.28293908,-3.853684659,8.934150245,2.43562859,10.03006544,1
18.0,0.576,1.73,-2.58,3.17,1
53.898984,-4.039308905,0.878527341,-6.056935397,7.33309574,1
51.9,-1.68,-2.45,-0.966,3.12,1
50.40883704,-0.6440607908,3.428809597,12.48535844,12.96363085,1
11.5,-1.12,-1.25,0.253,1.7,1
56.83753037,1.918884415,0.4539329459,-6.151843309,6.46013534,1
75.55398417,-4.955729274,-1.374344477,-8.01999772,9.527247178,1
124.6985192,5.175908518,1.334811745,-4.167084893,6.777635862,1
90.44215183,1.179943853,2.082853644,0.06622381032,2.394771887,1
196.4177012,-0.7608479599,-6.490026966,-5.482971539,8.530083033,1
38.3,-0.429,-0.194,-1.35,1.43,1
1.11,0.473,-1.37,2.08,2.54,1
62.6,-0.0976,1.79,-0.149,1.8,1
2.18,0.266,-11.4,1.69,11.6,1
38.9,0.0477,0.386,-0.207,0.441,1
20.9,0.0909,-0.174,0.567,0.6,1
97.81761767,-0.1194715893,-0.2500836593,0.2791443211,0.39336605,1
8.64,-5.78,0.53,-1.77,6.07,1
112.0510504,26.90236094,-22.1779557,34.28356321,48.89745852,1
123.2582522,-3.848702831,1.208180934,2.715103717,4.862509933,1
242.2300772,10.35102298,-6.509877094,35.01668243,37.09029826,1
30.0,-1.42,0.27,0.242,1.46,1
150.8927659,0.4101297724,1.437232744,-2.271483067,2.719095385,1
168.2739712,1.09261291,10.78054658,-1.363000148,10.92116097,1
48.4,0.125,0.769,-0.109,0.786,1
89.50641017,-2.772421634,-3.221049839,-12.00284854,12.7330223,1
84.65819971,-10.22434773,-8.170298059,7.945198383,15.3106902,1
151.8255133,-0.5824019748,-5.196152748,-2.507878395,5.799021425,1
151.4689566,21.34582909,19.53239351,42.9419424,51.78000804,1
126.0837177,0.64549694,1.728955156,18.22549988,18.31870077,1
50.55927504,-0.7650689918,0.2194369403,-6.079155986,6.131037485,1
168.2137932,0.5163626441,10.46819768,-2.30193522,10.73073617,1
61.2,-0.0076,0.207,-0.18,0.274,1
33.0,-1.43,-1.04,0.812,1.95,1
250.3406449,0.432335524,-1.904041404,-15.07364716,15.19957652,1
38.81366879,0.5515108421,8.747610617,-0.3755831797,8.773022196,1
9.8,1.93,-0.277,1.59,2.52,1
29.8,-0.874,3.19,8.93,9.53,1
4.5,-0.376,0.545,0.632,0.915,1
177.1955058,-0.5466546565,-14.41553017,-5.020694178,15.27461003,1
83.58416467,-1.125351031,1.218416339,16.16753608,16.25238986,1
26.2,-0.0799,1.95,-3.67,4.15,1
10.17434546,0.1732779966,-2.603670698,-8.11922263,8.528241465,1
176.7489689,-0.2207720789,-1.806818288,-0.8056422365,1.990575809,1
168.5831763,-5.178736231,-12.74747274,-0.2520588487,13.76157346,1
154.9146077,-0.1780851753,-4.398062775,0.06626181722,4.402165505,1
15.83667571,-0.1954313426,0.8460122904,12.01362847,12.04496572,1
163.2090414,4.642719634,-8.661978729,-2.068108136,10.04299718,1
22.5,0.451,0.184,0.204,0.528,1
194.831742,-3.33668116,-4.225953491,-11.20510472,12.4316731,1
171.4031981,3.539443011,10.25827796,-0.02006472051,10.851743,1
187.3335757,-0.8486147399,-5.054594581,0.1069286174,5.126451705,1
5.189835917,0.02119396403,-0.8936828855,-1.925887479,2.123243007,1
229.5824372,44.17655158,6.924503741,31.53752129,54.71865962,1
87.67954858,-2.006674072,2.301826754,-1.333473902,3.332161444,1
28.53786617,-0.3438955101,-0.2798246446,0.4301428181,0.6177287411,1
23.7,4.38,13.2,6.62,15.4,1
127.5841632,-2.376601387,8.438922654,11.16420345,14.19517835,1
38.77351679,3.551271343,-1.855275334,-1.583720698,4.308334477,1
51.23122867,-0.411722627,-4.563869931,7.761529738,9.013310609,1
17.5,-1.07,-1.51,-1.5,2.38,1
63.71439858,-0.1789182208,-0.01845790565,-0.2614044535,0.3173085444,1
157.1812832,-1.275904409,0.4959614164,1.373995106,1.939528896,1
171.3831391,3.573259505,10.69633498,0.2662120525,11.28054229,1
45.2,0.547,0.211,-0.469,0.751,1
204.2069768,1.982717591,-5.696658036,-15.34253371,16.48564292,1
276.7402075,2.777693776,0.7542463803,-1.853674951,3.423533428,1
194.329856,-10.33889937,-3.009763333,2.268002805,11.00433334,1
15.3,-3.1,-9.83,3.45,10.9,1
73.23204196,0.9910521823,-8.355923767,0.4007044262,8.424025787,1
205.4717304,0.4868341685,-2.280583966,-9.28390028,9.572297276,1
19.79237346,2.071838952,4.967530709,9.791386558,11.17318794,1
53.919043,-4.085727904,0.1329661956,-6.084457072,7.33017533,1
135.0361002,0.9865879793,10.9877146,-0.7006613266,11.05414648,1
13.22677779,-0.4845308407,4.942509888,12.7650869,13.69710253,1
126.1238677,-1.108270803,-2.913491266,2.48772772,3.988168093,1
179.3767257,0.6340241182,-6.1560305,-0.3387739339,6.197859782,1
36.29414967,-2.851754609,4.554110928,0.7042314903,5.419259422,1
1.61,-1.41,-1.69,2.34,3.22,1
96.77063083,2.170047763,1.860322065,2.70409458,3.934721461,1
267.625821,3.532731577,-4.39870363,8.443619138,10.15497367,1
29.2,-2.4,-6.51,2.78,7.47,1
174.4752949,9.150872616,4.132529603,16.61821724,19.41600924,1
59.7,-0.13,-0.579,-1.48,1.6,1
117.8026385,-2.943949705,-3.802130928,-12.37638973,13.27772805,1
294.7782837,-0.1786272488,-3.759852928,-12.74623781,13.29040933,1
35.31043167,-2.204099169,13.33094768,-1.790217458,13.63000726,1
50.5,-1.9,-5.63,0.0169,5.95,1
81.76733817,2.39374937,-7.458768513,-18.20911715,19.82259345,1
236.7092775,0.8729738018,1.363232721,-2.709730126,3.156441678,1
265.8089688,-3.801923937,-1.964884899,-16.90369702,17.43704021,1
81.82704408,-1.61904519,5.456704677,5.105267721,7.645959179,1
193.034993,-2.780799232,-9.099608322,-10.84245339,14.42548133,1
45.0,-0.189,-0.0629,0.307,0.366,1
237.9539663,10.9792759,-4.563191653,10.13165767,15.62106605,1
136.0210034,-14.82988843,4.725611517,10.09837298,18.55354769,1
298.492304,-3.491376267,-5.322531543,-13.19325745,14.6485867,1
57.08825917,2.387996002,3.242450356,-4.550874494,6.076715221,1
77.57466896,3.319450877,3.770528482,0.4498669383,5.043611744,1
101.0230633,-0.4022711876,-3.715864032,-0.9153210917,3.84802291,1
271.8618013,-9.340269193,-2.948771319,-9.257347489,13.47717936,1
24.7,-0.00436,0.162,0.06,0.173,1
65.63998821,0.9495158281,-0.0948938781,-3.028242581,3.175033588,1
16.46907379,-1.809751251,-2.863569785,-5.693370146,6.624929821,1
303.8123932,10.74868627,-8.779980218,22.14765309,26.13696323,1
235.5248153,0.6857360894,-0.0927230262,-2.293796627,2.39589952,1
9.954371458,5.333688031,-1.200674571,1.861649383,5.775429496,1
51.8,0.877,-1.57,-0.491,1.86,1
16.19804679,-0.1683974719,-0.3258749762,-0.4890541005,0.6113314338,1
79.42854917,8.185026026,-2.898873227,5.870401617,10.48139934,1
107.4738684,7.045997772,-1.804009139,8.443727311,11.14437367,1
145.5467393,-0.09964371756,0.3859021997,-1.916167068,1.957177971,1
5.075898708,-13.96372401,-17.75323898,-4.999893293,23.13356901,1
169.2668981,1.699496445,5.214283794,0.5426046556,5.511031071,1
118.7963685,-5.35687341,-9.203123335,-19.08713154,21.85662742,1
24.8,-7.68,-6.02,-5.49,11.2,1
43.2,-0.0654,-0.322,-0.583,0.669,1
137.285748,1.396014259,-9.0520459,-12.44307137,15.45051507,1
12.00213429,17.77269735,0.3936810431,31.72293884,36.36438648,1
184.472831,-3.802646652,5.1373052,5.369598121,8.347730845,1
13.39742479,-0.4977950301,-2.733006722,-3.159965732,4.207434974,1
255.1688454,-7.075751914,5.173964319,-1.372460797,8.872419093,1
61.1,0.0797,0.338,-0.0494,0.351,1
6.73,0.0364,0.421,-0.217,0.475,1
122.1650397,3.472398544,4.749111477,1.747290709,6.137152131,1
5.06,-0.521,-0.0121,0.329,0.616,1
185.125281,-1.580670937,-9.768191239,-0.7213674867,9.921514589,1
103.650751,0.2955413756,2.680792841,1.845098255,3.267779449,1
198.0638872,6.536871935,-11.71274712,3.217008829,13.79377706,1
141.2305474,-2.473267848,-13.1297637,-13.98675736,19.3426247,1
41.1,-0.421,-1.08,-1.31,1.75,1
284.7805478,1.087021656,-4.505541908,14.34805915,15.07807433,1
125.698611,-0.0223791581,0.03937836617,0.5669319963,0.5687384029,1
14.5,0.501,1.64,1.37,2.19,1
29.4,-0.0886,-0.449,0.318,0.558,1
178.9119515,-3.896769283,-0.7604701567,4.096592031,5.704839346,1
12.92235054,1.414822851,0.5719535851,-0.9890231985,1.818521787,1
60.8,2.05,11.8,2.01,12.1,1
36.48101079,3.166300605,-1.064137408,-0.8530216402,3.447534461,1
90.43212283,0.7721692657,2.150791274,0.540073396,2.348154116,1
268.177904,8.19004703,-5.135493733,-3.182410854,10.17732308,1
109.91911,4.76545766,-1.198934732,-7.933442556,9.332017037,1
173.9507129,-0.1359036905,-5.761804204,0.2606104016,5.769295908,1
46.7,0.487,0.093,0.156,0.52,1
90.71093417,0.3460212654,-1.260466737,5.935257763,6.077482359,1
17.7,1.85,0.34,-0.111,1.89,1
72.65035087,3.225936065,10.30783896,-4.534583566,11.71412206,1
281.0665313,-7.3363629,5.237683766,5.010034119,10.31290423,1
65.09841521,1.852387686,9.26628145,0.1682395971,9.451117215,1
6.784474292,-0.2322878412,-0.05484483629,0.4995697331,0.5536564959,1
10.13422846,-0.344907919,-2.544030852,-8.837767666,9.203107723,1
90.15130383,6.224914209,-0.8408561426,-9.492189211,11.38236583,1
128.9344135,-1.981906144,-16.51782055,-22.71803962,28.15804809,1
1.522475417,61.54843281,-24.82973115,70.68405238,96.95854986,1
123.4989592,-2.515099998,-0.2085631657,-2.082589935,3.272064705,1
57.8,0.627,0.0597,-0.0978,0.637,1
117.2405819,1.761692401,10.9053706,5.859697119,12.50466787,1
23.2,-5.51,-8.69,-4.4,11.2,1
54.9,-0.492,-8.37,-3.66,9.15,1
53.5,-1.02,-6.92,-2.59,7.46,1
85.58166892,-1.27011742,-0.9299873704,-11.92610267,12.02954694,1
51.04171767,4.859776172,4.982012508,14.30066162,15.90430118,1
11.5,-0.39,-1.01,0.992,1.47,1
299.265223,-0.1739060607,-3.628475055,-9.359089626,10.03935422,1
41.3,-0.416,-1.04,-1.37,1.77,1
57.7,3.02,-7.51,0.334,8.1,1
243.8361305,-4.576397005,-6.740471399,-5.779772698,9.989150948,1
10.32577946,9.935229818,-6.197483751,26.85606736,29.29788304,1
19.70211046,2.215056121,2.790438074,19.44358132,19.767293,1
61.979363,0.2388453108,1.977045938,-3.648087786,4.156236545,1
14.6,0.831,2.99,-5.78,6.56,1
21.8,8.98,5.02,12.2,16.0,1
42.09606417,1.045794839,4.968958014,-1.999886917,5.457451628,1
235.9865543,-1.325275228,0.2522468184,-2.883642692,3.183610853,1
112.4826705,0.2299878024,-7.774156215,-13.94478487,15.96707313,1
289.2474065,3.356226648,-1.67528868,-4.211482801,5.639808229,1
216.372724,1.592087479,0.08262451932,7.784513388,7.94608193,1
163.2330972,32.69156987,-10.38796452,27.11501716,43.72496659,1
49.7,-1.76,-0.882,-0.73,2.1,1
99.73930762,1.407750936,-1.884984159,-5.027955251,5.551149609,1
87.30299708,-1.574680026,10.20298552,3.833613507,11.0125893,1
115.243031,3.470197944,-11.46684364,-7.152816462,13.95326342,1
26.8,0.372,0.0726,-0.297,0.481,1
28.8,0.269,-0.0253,1.81,1.83,1
77.43104029,8.574811946,-4.18386611,22.24485487,24.20466285,1
298.954048,-6.666342738,-4.980149585,-16.43176123,18.41859909,1
305.1574729,4.200292985,-8.361080427,15.77313553,18.33962736,1
108.6984648,11.4632745,-10.32442517,-6.956589752,16.92319586,1
91.52398646,-5.177802431,-1.676452715,-6.508265601,8.483964454,1
265.2167348,-1.27705558,-4.688736051,-9.888294218,11.0178709,1
78.95869525,2.807040366,9.806701001,3.120628588,10.66720127,1
35.9,-2.22,-4.57,1.69,5.35,1
254.3758564,-1.78124549,8.069195023,11.73961625,14.35629944,1
122.5504574,-0.3312282483,-9.594564017,-12.85502643,16.04422249,1
59.0,0.579,1.89,1.31,2.37,1
187.0393522,-0.8545047864,1.139614729,0.4852898093,1.504794458,1
305.4385359,34.1181829,-14.66957532,20.68595209,42.51065112,1
145.7976813,-2.958409869,0.2596122819,-6.79426169,7.414956466,1
201.5269028,-1.448559823,-4.15428066,-11.41112201,12.22988467,1
276.2483518,4.631778324,-1.565644031,8.432699463,9.747565435,1
180.7287726,-5.911937313,11.68187616,9.27363023,16.0442342,1
154.5736037,-0.3864916722,8.081377696,-1.734661308,8.274484343,1
154.1924807,-0.4852257822,0.2001887834,0.8167098463,0.9708422023,1
15.34481071,0.8778930643,0.5757428733,-4.462182173,4.584020706,1
52.03546129,3.594268844,-2.759372695,-6.75073794,8.130520827,1
228.8797926,17.4605566,-0.08785967767,41.55603066,45.07529746,1
299.5161701,2.948244485,-6.593827908,32.45153933,33.24564809,1
51.1,1.44,4.98,-1.68,5.44,1
274.0600944,7.357354989,-6.989441164,6.675825167,12.14699971,1
243.8863195,-8.587558292,-12.9486193,-4.490682086,16.17340795,1
6.834620292,0.2551880593,0.3634526923,-0.9923093337,1.087150688,1
160.4024758,13.4870777,-10.64815743,-3.53477284,17.54363533,1
297.8197653,2.567358027,-2.626817193,35.95667381,36.14379458,1
169.7876975,-5.391732756,8.242236353,16.65418697,19.34857064,1
99.67459058,-4.800816066,-0.4677123116,3.399301039,5.901003072,1
54.2,-0.00763,2.09,1.12,2.37,1
23.9,1.09,7.92,0.803,8.04,1
187.2833873,-5.904919485,-3.690842627,-6.231269547,9.344469679,1
38.4,0.211,-0.196,3.14,3.15,1
11.77901921,-0.5918329489,-1.485426811,12.10487076,12.21002273,1
76.15624817,13.18999938,4.867259439,-6.930954389,15.67496178,1
185.607091,-6.253820504,5.313913332,5.56130201,9.913426544,1
96.56290771,0.869899482,-1.11706845,1.839636371,2.321385148,1
292.3591508,-0.733633191,-1.935276938,-4.899705931,5.318893935,1
264.3534795,-1.068976417,1.101098974,0.8013012636,1.731246154,1
174.2215124,0.1736618663,15.24231126,-6.26361459,16.4800206,1
64.74739646,0.2002402389,12.29134899,-11.95851729,17.15002892,1
25.8,0.764,-0.683,-1.33,1.68,1
263.0786719,3.940509087,-2.642416395,-2.67938717,5.448769758,1
295.5411631,-1.774738124,-4.376548822,-6.976134655,8.424388982,1
170.4704469,-1.036007623,-0.05152040184,-0.6353052431,1.216379422,1
281.3576303,0.7822647759,-4.000108879,-4.508821903,6.078016468,1
166.1440213,0.8327225194,-0.959973354,-2.256023614,2.589327747,1
26.85845354,5.342114453,-12.87334342,3.191589228,14.29851039,1
216.382761,3.333791758,-1.173187395,11.2466948,11.78892192,1
299.6466631,1.14849475,-0.8473439938,-7.172042692,7.312675872,1
177.4364117,-7.848135188,-4.340265972,2.13736899,9.219516301,1
243.314164,33.8291831,0.2850646269,34.60469697,48.39400731,1
49.7,0.175,9.98,-4.29,10.9,1
61.24013142,2.195573344,-3.842208036,-11.14287515,11.98944417,1
110.4306092,2.614791225,8.849899469,2.457058489,9.549606808,1
254.6669534,22.26442901,-1.752506133,40.83707106,46.54505827,1
74.59036167,14.29880104,-0.7385385664,29.47586088,32.76930767,1
178.604445,-0.07011849448,2.142382393,-2.624485323,3.388604747,1
2.572219292,-2.828896089,-2.376464269,-10.77091739,11.3869617,1
5.61,-0.109,-18.8,-2.4,19.0,1
116.9898459,14.61298948,-8.884407397,-6.818372684,18.41093051,1
162.5170021,-2.858154971,0.237757144,0.9267345643,3.014036372,1
15.68038833,0.1039823516,0.3312044209,-0.4746296042,0.5880322772,1
217.647518,7.281263418,2.035358466,3.251313858,8.229855579,1
105.90799,6.677291649,-8.125371562,-21.01943049,23.50370918,1
197.0801902,-1.035017251,-4.872956089,-9.680965984,10.88751873,1
298.1710923,6.499317023,-1.819558348,-0.7469379455,6.790421978,1
20.8,-0.506,0.0468,0.0475,0.511,1
26.8,3.76,0.666,0.352,3.83,1
99.56417558,0.707654962,-0.2371294454,-0.8796732491,1.153616463,1
53.2,0.0633,0.411,0.084,0.424,1
74.84130467,-11.23091433,-1.657999925,-12.04612729,16.55269112,1
49.21536817,0.6205261132,0.5496330088,-3.762069315,3.852312894,1
144.43256,-1.265425322,-15.32023828,-12.87013096,20.04872248,1
123.413697,5.692148078,-8.648511422,-5.199222536,11.58573323,1
297.3479849,9.329781627,-0.5858746362,-1.356450536,9.446059091,1
38.3,-0.162,0.729,0.32,0.813,1
142.1771142,5.1202746,8.818785265,3.482055513,10.77556941,1
89.67705017,2.962959295,1.564765195,6.883118902,7.655386582,1
174.7731394,3.588405256,8.194261703,-1.623227557,9.091613984,1
69.24023929,0.6255053097,-1.429390019,-6.585243026,6.767557789,1
60.24639054,-7.321599265,4.663541569,22.32523537,23.95350851,1
138.38989,-8.597178131,6.367626032,34.7885615,36.39645786,1
53.53109767,3.213577975,4.265470144,11.96581696,13.10351458,1
10.75741546,-0.5438686775,-1.683281678,22.02427918,22.09520545,1
50.26842904,-1.565664935,5.426105613,2.594544071,6.214948733,1
29.93193071,-4.72557234,4.038481817,-1.269630493,6.34447247,1
71.28794254,1.202496563,0.7637291023,2.863026579,3.197843229,1
58.7,0.0466,-4.85,-7.08,8.59,1
65.3,-0.134,0.915,-0.0873,0.929,1
29.4,2.91,4.09,2.49,5.6,1
155.0149027,-1.449647698,-14.64461356,11.06723323,18.41330595,1
113.0949685,4.54693464,-8.548923984,46.58610027,47.58175548,1
15.33939471,-0.310036477,0.01363512218,-0.7605526024,0.8214309433,1
41.9,-0.997,2.84,-0.0807,3.01,1
95.85796458,-1.124821931,10.47661767,6.374732738,12.31511103,1
248.6141368,-11.25082176,1.839145058,-1.495775067,11.49786015,1
89.539519,-3.379993825,8.41355217,-1.380553343,9.171594513,1
23.7,0.386,9.25,2.35,9.55,1
234.7117539,-0.9123884938,-0.8734494728,-7.245225858,7.354499608,1
58.753102,4.137218485,11.70067496,0.6924126595,12.42987557,1
207.9410147,-0.4557678021,-4.670270252,23.30772665,23.77539211,1
185.0936051,2.630660568,-4.197739506,-3.965362385,6.345509501,1
56.76732537,1.275618773,1.454489923,-8.212298024,8.437095651,1
183.4088361,-0.5433450593,-10.22571832,-5.297279758,11.52916787,1
250.812422,-9.23256582,-4.15073257,-9.549339312,13.91613214,1
244.6993831,-4.684818417,1.504668097,8.03720549,9.423811425,1
3.77,1.81,-0.0197,2.11,2.78,1
252.1574935,-1.896592344,7.546924059,12.20888571,14.47791475,1
75.00720233,-8.058265407,8.176784375,-11.44216605,16.20859673,1
30.7,-1.04,-0.743,-1.22,1.77,1
164.798974,-0.4245800695,-3.462794784,-12.69260832,13.16334007,1
32.1,-4.23,-2.4,-1.63,5.13,1
45.26995704,20.64998938,-19.72351677,47.61049971,55.5175545,1
281.1167213,-5.023387991,8.976488764,7.620463321,12.8016889,1
146.6508822,-1.674874113,-16.97859985,-11.00708877,20.30354795,1
19.85254946,1.7475781,4.733336858,3.780503832,6.304816908,1
40.7,-5.88,-4.61,-5.2,9.1,1
52.03356167,0.2261336102,-4.555858368,-8.318781669,9.487313125,1
42.7,2.62,-1.95,1.51,3.6,1
52.5,-3.89,8.89,-5.25,11.0,1
46.5,-1.67,-0.217,0.604,1.79,1
65.3,-0.503,0.676,0.345,0.91,1
85.56159392,-0.628374977,-1.51216949,-14.76875228,14.85925825,1
36.9,-0.346,2.35,-3.07,3.89,1
149.8095776,-0.7149416891,9.426305124,-4.065821643,10.29064019,1
34.1,0.598,11.3,-3.86,12.0,1
25.7,-2.99,6.79,0.21,7.42,1
126.8118892,-0.4840186977,1.011291735,5.21310675,5.332304104,1
94.27431404,-4.312330315,-1.402414913,3.551960145,5.760154616,1
2.582248292,-2.398820368,-2.507611762,-11.68358589,12.18805297,1
89.71720117,4.852910956,3.78480212,11.47633718,13.02235719,1
21.2,0.939,9.5,-1.3,9.63,1
8.980680667,28.72333358,-17.28606516,-13.16129423,36.01468599,1
27.2,-2.76,-3.96,0.0369,4.83,1
260.6495114,3.219722229,-1.613785619,1.022333032,3.743805562,1
15.5,-5.71,-14.8,1.0,15.9,1
61.84898533,-2.635217888,-0.02459689736,4.017739404,4.804915009,1
239.810962,6.688249916,0.21946106,-3.561429711,7.580542967,1
30.9,-0.32,0.221,0.0409,0.391,1
50.0,0.416,0.611,-0.668,0.997,1
194.0488011,-1.38346818,-7.475785664,-6.729426593,10.15315408,1
3.499940292,-15.61523498,-7.974844936,0.120124906,17.53419931,1
76.56172246,-4.730713212,-3.480704806,-2.688689505,6.459412102,1
291.4457028,2.58392962,-1.589215327,-9.486344334,9.959569593,1
53.83223267,0.8508953002,-4.029738475,-5.967640813,7.250900073,1
85.98317792,2.835845797,4.76249166,-6.290622295,8.384227874,1
298.75329,2.532256314,0.8773051999,3.29052704,4.243766565,1
241.7583002,-8.0217513,-4.256802523,-20.66529505,22.57262238,1
70.37450667,16.22303668,-16.31488474,35.20657193,42.05787786,1
23.10202158,-0.2025811717,0.08345175415,-1.192411578,1.212373168,1
262.0246963,-7.685120662,-0.7366005068,-2.54448138,8.128840348,1
25.23229342,1.491935346,-10.61129308,4.056846752,11.4578976,1
16.8,-2.52,-8.91,2.17,9.51,1
18.5,1.59,-1.22,2.14,2.93,1
47.7,0.11,-0.0497,-2.41,2.41,1
156.2986841,7.451809741,-5.855574247,-8.677279723,12.84960706,1
19.9,-5.02,8.76,-7.99,12.9,1
32.3,-2.81,-3.11,-0.163,4.2,1
80.82412446,3.15258713,9.995575422,-1.743550245,10.62498476,1
30.09068971,-5.241389147,10.7162389,3.012804762,12.30393957,1
303.8726202,4.562291182,-0.2968072978,28.92598872,29.28507161,1
272.2432403,7.26852175,0.7783747695,12.44734803,14.43515669,1
40.17882492,2.054579141,-1.285550122,-2.179362524,3.25937963,1
121.6470677,-3.812831917,-14.07004627,-15.69725037,21.42212777,1
38.4,-0.132,-0.169,2.88,2.89,1
241.8084892,-5.006039302,-7.887346616,-14.00314242,16.83326064,1
54.6,0.0898,0.323,0.236,0.409,1
176.6486729,1.667637014,-14.23926586,6.302595638,15.66079235,1
150.5918809,0.460040655,-4.700195425,0.3269037938,4.733956118,1
21.9,1.09,2.11,3.93,4.6,1
103.811221,-1.170960337,7.248612565,5.748531024,9.325188533,1
0.4059209167,1.441224784,0.416696561,1.567575951,2.169806273,1
9.86,1.75,0.666,-1.44,2.36,1
300.6404153,-3.426033924,-6.340378591,-12.6561369,14.56419961,1
62.8,1.19,0.46,-0.216,1.3,1
53.26007667,0.9331454515,-0.2373852611,-4.584008911,4.684042046,1
110.354683,0.4798710483,-13.08891272,-16.3471871,20.94708663,1
262.0648483,-5.463604392,-0.03700235009,-6.250244932,8.301680783,1
10.98829046,-0.1483991904,-7.334954306,-14.44391139,16.20031337,1
256.0923272,18.12972365,16.30017081,21.22863451,32.32703778,1
10.87787246,0.6940099727,-4.744192506,-8.701417614,9.934972615,1
143.3786062,5.627322922,-13.39663764,-14.70487028,20.6729261,1
58.0,-0.116,0.128,0.229,0.287,1
8.26,-1.42,-1.58,-0.404,2.16,1
36.27407467,-1.601284272,4.545368755,-0.08850689135,4.8199919,1
287.4104735,8.280734421,-10.89518943,49.72717774,51.5758463,1
276.4892615,0.1401352474,-1.56266429,-2.146312891,2.65861178,1
166.5957174,-1.954264601,-1.049268816,0.4118638372,2.256046764,1
168.1134966,3.809627059,3.501185263,2.687835812,5.830610425,1
90.29171283,2.337829084,0.3586093705,-0.6965583354,2.465611288,1
127.4136612,-0.1573193554,-2.57546753,-7.283566636,7.727103294,1
47.4,3.66,2.45,-0.241,4.42,1
34.34678871,24.68619604,-49.67723316,-7.535815519,55.98235691,1
3.65,0.139,4.44,4.03,6.0,1
177.4665247,-9.347543714,-0.3847885975,8.372090149,12.55454217,1
59.2,-0.0271,-0.919,0.543,1.07,1
125.0266311,-0.890791145,0.3596514174,-0.4363929069,1.055128796,1
46.0,-2.32,0.0212,-2.43,3.36,1
270.5368021,4.330292961,3.727483619,-10.51755636,11.96931757,1
157.7329082,7.39351534,-16.33625748,-0.4779923379,17.93783304,1
245.2715391,0.7491218074,-3.063060996,-18.07687535,18.34984873,1
77.07320996,2.370767035,10.0670436,2.309820044,10.59722472,1
205.9133914,0.76180588,-2.713179399,-8.780279011,9.22144187,1
105.526242,-0.3968223135,-29.47191518,5.300779901,29.94744597,1
76.05587117,-2.977911503,-5.755526633,-11.55652823,13.24942974,1
153.205471,3.798898587,-7.372540793,-4.242495849,9.315833792,1
12.34065521,-0.5442427531,-4.067222636,-4.768003246,6.290656173,1
65.47607683,11.25738117,-11.25813663,32.61926321,36.29725339,1
213.3413218,-3.568971742,5.818704044,-4.613369535,8.238813902,1
32.5,0.451,-0.246,-0.307,0.598,1
59.6,-3.21,-4.57,-3.38,6.53,1
255.4800192,4.131391442,-13.17167187,-3.023281803,14.13158052,1
47.9,-0.0292,0.0304,-1.88,1.88,1
47.3,-3.98,-8.53,0.503,9.43,1
35.3,0.485,0.434,-1.19,1.36,1
56.7,-0.214,0.903,1.21,1.52,1
64.1,-0.499,0.0772,-0.502,0.712,1
251.7258665,27.52777211,-9.247490253,15.3322508,32.83857835,1
234.5812619,-0.3802473575,-3.383492799,13.39312464,13.81913163,1
182.6363484,0.1679763627,10.63307279,-1.00704958,10.68197556,1
6.7,1.25,3.9,-0.682,4.15,1
89.25546717,-2.543685282,1.832301623,-7.333291942,7.975263931,1
38.24615117,0.6605802713,9.207815725,4.318841774,10.19179233,1
106.418856,-2.673927917,-11.46656999,1.37400914,11.85411401,1
263.1589749,5.440863401,-4.377123311,2.695102732,7.485037192,1
125.808936,0.4696394807,-0.07043175906,-0.1052966595,0.4864249799,1
226.8722349,-1.532039206,-10.42475988,-9.82822928,14.40891576,1
186.8487902,0.957906948,-1.195563228,-0.07663010001,1.533893518,1
195.3537038,-1.396645758,-6.314987057,-12.37183007,13.96036748,1
94.92523937,-0.6251986232,0.2181561077,0.3919844735,0.769491542,1
219.4543163,-2.981026899,-12.29462811,-16.18698625,20.54417012,1
23.34272358,-0.411849475,-1.873986424,-3.638017126,4.112981123,1
18.67912867,0.1615135084,1.515780146,1.486250537,2.128994298,1
20.0,-1.37,5.8,-0.553,5.98,1
157.0809881,-1.610113422,1.238446122,0.4117012846,2.072609943,1
86.86171087,1.434182543,3.78649138,0.03907694221,4.049188011,1
108.0962054,-3.11354147,-14.21116648,-22.21940545,26.55848963,1
146.9118612,0.9577897844,-13.45014668,-5.128525021,14.42655801,1
122.7968967,1.290359749,-2.574606235,0.764824432,2.979694944,1
3.855953167,0.6508092816,3.327870868,-5.730219884,6.658355439,1
35.47103867,-1.552004524,0.9644303942,-5.557414196,5.85010227,1
8.54,-1.31,-0.692,-0.908,1.74,1
29.4,6.28,10.9,0.942,12.6,1
277.4729713,-1.171867971,1.484755843,-6.696255339,6.958276368,1
124.3472002,1.111430127,-10.1848381,-9.776873184,14.16168963,1
8.36,1.28,-0.0656,-0.532,1.39,1
122.5404204,0.5118329524,-9.178698345,-12.62488002,15.61723637,1
79.26960025,-1.449215443,0.4731409031,-0.7392739999,1.69428857,1
13.95955679,-4.226801922,-2.384878559,-13.96009405,14.77963891,1
199.7803382,-0.499591112,-14.24284435,-12.45684274,18.92831576,1
92.21658717,-0.805583472,-5.202789338,-7.585443762,9.2334684,1
192.2948832,2.024524452,4.924363639,1.156840042,5.448516807,1
225.8483795,-12.48463572,-10.96267799,-14.19293954,21.85145237,1
37.2,-0.641,-0.453,-0.915,1.21,1
143.9723976,0.892463741,-1.138403771,-2.48823789,2.878156089,1
21.49814308,3.724825182,-6.679718243,6.310920904,9.91567855,1
25.90484142,-1.846498955,5.410752579,2.015647502,6.062065384,1
203.5545238,-2.904551166,-0.8770282611,7.643977899,8.224110539,1
202.1492418,0.5181727959,6.703133419,20.29102179,21.37582901,1
93.83204733,-1.462064845,9.292097492,-10.95947606,14.44267374,1
42.7,1.03,-0.864,1.77,2.22,1
165.1948939,1.044549528,9.518587051,1.593511422,9.707412725,1
120.7207992,0.1240522615,-5.412012069,-1.365139206,5.582908619,1
54.47465292,1.376030522,-0.1051490173,-1.524740419,2.05653827,1
84.64816271,-8.216697469,-9.641237077,7.607970745,14.77662981,1
189.0553088,5.431198538,8.079552196,1.179887573,9.806590433,1
9.753118458,-1.6217678,-2.769719051,6.10506266,6.897337493,1
8.83,0.729,0.454,2.43,2.58,1
194.2294791,0.1904904453,-8.028796025,-11.93832569,14.38824077,1
42.4,0.559,5.77,-0.905,5.86,1
232.6439662,-2.159547772,2.272800299,-3.490662029,4.691906774,1
198.4352837,-0.026506598,-13.15482019,-12.07243275,17.85479289,1
263.1087849,4.637029123,-2.979904526,-0.6041080087,5.544981205,1
52.0,-0.894,-5.43,-0.976,5.58,1
255.8714952,-9.737423775,1.404371392,-7.876363206,12.60264965,1
150.7763583,2.614808474,-15.416156,1.969444558,15.75987948,1
229.9136842,8.063559476,-15.49261887,-19.18899238,25.94724763,1
54.1,-2.52,1.68,-0.784,3.13,1
230.8572374,-27.33252656,-16.66744612,-12.2526989,34.27826423,1
290.9136948,10.67692924,-3.5269709,34.72700903,36.50207526,1
25.9,-2.82,-3.87,-8.6,9.84,1
89.459285,2.277053563,9.681126198,-2.253591903,10.1974435,1
8.389146917,0.4443642698,2.599958593,0.1439923632,2.641586283,1
15.48534371,2.043496036,1.398499179,13.42467153,13.65113482,1
52.5,-0.714,-0.461,-0.145,0.862,1
53.0,0.375,-0.0726,1.86,1.9,1
49.42562508,2.995944608,-0.9870702285,25.84355649,26.03534911,1
58.3,9.44,-1.29,3.87,10.3,1
66.29917304,42.95840816,9.262011813,20.83430765,48.63412453,1
46.3,1.24,-3.52,-1.91,4.19,1
158.8562174,4.991441728,-8.900813515,-4.525960093,11.16348004,1
31.01508533,-0.2641484787,-0.1472469234,-1.021361225,1.065192389,1
71.34816854,-0.7773013669,1.146591919,-12.60699924,12.68287429,1
65.0,1.25,-1.39,-0.314,1.89,1
59.4,-0.215,-0.0882,0.311,0.388,1
275.0337684,5.797776275,1.958438052,3.851421787,7.230708064,1
53.537935,-0.6522813182,3.120610462,6.534040128,7.2703068,1
3.63,-0.55,-0.59,-1.84,2.01,1
37.5,-2.12,-3.86,0.997,4.51,1
1.161112292,7.851672753,-1.344696024,14.36287132,16.42403863,1
208.4529385,2.16849138,2.404377561,-4.092783154,5.218645444,1
270.6572571,-10.3315155,-5.735292928,-13.68991527,18.0844568,1
18.0,1.26,-1.09,-0.919,1.9,1
30.15091671,-3.717091362,6.458752549,2.474853905,7.852206985,1
60.7,0.984,-0.25,-0.00762,1.02,1
255.2692244,-19.21846118,1.665334965,-3.043261739,19.52905611,1
198.0739252,5.950177519,-12.48145367,0.9801307529,13.86188856,1
36.53506067,-0.5336110532,5.441999515,-0.1492642128,5.470135216,1
220.1368843,1.555119043,-4.176193101,-8.693473586,9.769107792,1
47.13933167,-0.05622499846,-0.7895232171,-1.081271212,1.340020744,1
230.0040252,16.90567221,-1.975227016,29.50691194,34.06407384,1
172.7973099,-0.5813817818,0.3992625028,-0.266167303,0.7538304555,1
39.9,0.693,0.0112,0.661,0.958,1
78.26417254,0.8865751563,-4.669309262,24.36278654,24.82204328,1
14.29635408,4.27379804,-2.735231003,-3.928868158,6.41738602,1
182.9974144,8.12281399,-14.46159688,7.585389968,18.2388605,1
16.69994979,-2.992823657,2.128472159,9.205378021,9.910921838,1
52.5,1.39,-2.6,1.61,3.36,1
128.867943,-2.604735768,-2.733034204,-2.820624033,4.712753369,1
89.23539217,-3.224584773,1.718953202,-8.878611637,9.60117137,1
113.4663627,13.59460799,-4.614606805,-7.60161833,16.24477035,1
54.12965604,-1.171015008,-1.346482933,-7.278123463,7.493688917,1
35.7,-0.487,-0.47,-1.71,1.84,1
54.09321567,-0.9618704832,-1.641252038,-6.397243348,6.674101103,1
42.37712492,-2.931488703,-11.19689757,1.10687383,11.62709383,1
181.6221272,-0.9135084549,-8.548405336,-9.097945958,12.51728214,1
122.3296294,11.07374586,-1.592370192,45.51725731,46.87199807,1
22.29968217,-0.5794505927,2.083765225,-4.110052321,4.644391304,1
42.0,0.823,3.6,9.98,10.6,1
47.98017658,-2.116849064,3.508367691,-6.452315349,7.643432944,1
14.3,0.381,0.52,-0.649,0.915,1
176.8292059,-1.789388177,-4.37816587,-2.367916517,5.289354881,1
179.045748,10.98877996,-6.714683424,3.361782964,13.30946443,1
46.9,-0.609,-0.299,-0.911,1.14,1
189.2559017,2.562347547,3.982315802,1.623786989,5.006111094,1
90.15886017,-1.936627645,-4.559077845,-16.18079639,16.92199425,1
57.24508833,2.341091538,-1.563675566,-5.943224595,6.576299069,1
55.82458467,-0.1264854341,0.2475909913,-1.320428764,1.349382075,1
39.16883908,-0.8919309135,-0.6900234872,0.6823308903,1.318047272,1
12.32335221,-2.912323285,0.9730225852,-5.33532876,6.155821053,1
25.0,-0.968,-10.3,-2.18,10.6,1
104.18151,1.594154762,-9.323870677,-23.17824122,25.03411193,1
170.9719259,2.552242974,-19.10793594,0.2299008981,19.2790045,1
99.25790062,3.480345787,3.149261234,-5.339142898,7.10894507,1
117.9833165,3.386307649,-5.781470729,7.397439991,9.980711483,1
176.1772819,0.06728453178,9.202823957,-1.119905593,9.270959202,1
131.0623987,-3.345546708,-7.678473548,-3.40564176,9.041572573,1
90.13878517,0.5921362732,-3.760310472,-14.66189559,15.14799467,1
102.2341987,4.424520841,-3.955427966,-20.56095031,21.40033815,1
50.2,-1.48,-6.13,-8.78,10.8,1
151.8756613,3.388467025,-0.6346696508,-0.01212303221,3.447413714,1
27.0,7.84,-5.01,4.49,10.3,1
37.85002883,1.259596671,-3.964212238,-0.2572364851,4.167461223,1
18.38634554,-3.033789834,1.373039964,5.710230592,6.610283876,1
195.4943423,-2.389344808,-5.291824306,-1.481411966,5.992241192,1
43.9,0.159,-9.25,-0.599,9.27,1
5.49,-1.28,9.67,-5.96,11.4,1
204.5884103,-0.01175641179,-2.770689688,-11.17803095,11.51630303,1
62.2,-1.78,-8.41,-0.646,8.62,1
62.5,1.31,0.295,0.501,1.43,1
135.5391954,-1.980335728,-7.413687065,-1.881699486,7.900966931,1
76.24078946,0.7968281436,0.8103258562,3.056143155,3.260609463,1
150.9971863,6.606457894,26.67497208,6.88902459,28.33122096,1
163.3033618,9.593388727,-2.606597521,20.71614244,22.97794628,1
58.75075829,-2.137103819,0.562653881,1.786753567,2.841879736,1
191.6698638,-2.84821412,-1.332013852,5.478560985,6.316740856,1
37.5,-1.24,-0.267,2.43,2.74,1
161.6872963,-4.898770376,-8.727754642,-15.82099265,18.72098985,1
83.16258029,4.482271744,0.559734951,-7.305215367,8.588960051,1
11.1,8.12,3.33,4.96,10.1,1
54.0,-1.21,-0.453,-0.51,1.39,1
29.57087771,-5.685877524,-4.782520713,-11.40350777,13.61035257,1
105.586418,5.604680164,-8.643353593,-12.0384651,15.84438838,1
179.6475247,-1.1117488,10.73618493,-13.11975327,16.98910174,1
113.2053835,12.14040546,-10.6096617,1.47236223,16.1901889,1
144.874217,0.8469148082,-13.09857699,-10.92026346,17.07460506,1
52.48716417,-2.267925329,-6.32302464,-12.89451618,14.53934914,1
257.2266048,16.434686,6.991172524,27.72554833,32.98001558,1
102.356965,0.08373103179,9.492596762,4.820104276,10.64658675,1
81.25537908,-9.922865295,-49.79264317,0.6654216197,50.77611008,1
89.79750317,1.433495203,1.481610479,5.343362249,5.727267956,1
62.92648054,-0.5046871432,-0.3051047891,-12.75682127,12.77044584,1
64.8,-0.547,0.491,0.632,0.969,1
49.39589217,-0.9290378556,4.081727531,6.753858014,7.945955516,1
113.7976067,-3.139322429,-14.51666361,-25.99956488,29.942716,1
25.48897954,1.475436112,-0.04508466393,-1.330004749,1.986921483,1
50.6,-2.03,-7.46,-2.96,8.27,1
76.07029346,0.2478381823,0.2210007781,0.7117438468,0.7853944309,1
214.3350584,3.164650813,-0.1637296396,30.03084585,30.19757481,1
109.4211787,0.227425589,-7.359131958,-12.51272575,14.51815592,1
95.41667558,-0.9108745766,2.192770774,-2.864021775,3.720289893,1
33.93523208,5.5196061,-12.5514156,0.8008090011,13.73482363,1
41.4,1.33,-1.05,-0.213,1.71,1
23.5,-1.37,-11.7,-1.26,11.9,1
287.9926705,1.775501186,-4.068964521,-5.686923591,7.214566977,1
8.41,0.819,-0.132,0.277,0.874,1
37.56896683,-2.626865433,9.136875551,1.097412523,9.57012179,1
42.54597217,-1.371338131,-1.803377494,-0.2702279019,2.281613853,1
32.73067758,-1.314832978,17.00709684,5.058257861,17.79202353,1
3.45,-0.24,-0.283,-0.457,0.589,1
3.65,-0.2,-0.779,-0.142,0.816,1
4.23,2.87,2.42,-1.22,3.95,1
152.8685829,1.553479191,1.688051398,-0.4941090915,2.346691056,1
241.5475052,52.51179491,-14.21698913,48.72156424,73.03014587,1
305.1072839,28.65636191,-15.73313824,46.96991618,57.22666986,1
14.35653008,1.035064175,-2.305378792,-7.526688015,7.939594555,1
241.2764838,-2.694739912,-2.606825855,-10.0761138,10.75105732,1
18.86968467,0.517815056,5.168405955,8.074030085,9.600547608,1
2.596527833,-18.55644761,-16.36884753,-3.281501863,24.96095294,1
18.9,-0.254,-3.84,2.56,4.62,1
44.3,0.337,-17.3,-2.26,17.5,1
98.41543775,-3.735690478,-6.823484904,-0.6016781983,7.802393623,1
45.03908658,0.4319873954,-2.567573789,-15.1733761,15.39514178,1
101.3609203,-1.517620264,2.935730858,-18.32489553,18.62051243,1
88.24166008,-7.030088083,-0.6721950343,0.2166025025,7.065472473,1
121.1853342,-6.401760322,-14.36699711,-14.75754434,21.56799147,1
162.2762931,2.767654983,-0.1500056398,0.9208499996,2.920681516,1
94.53529404,1.39194942,-1.898345924,3.640002256,4.334842196,1
30.95491033,-0.1113543018,0.2385348237,-1.129430049,1.159702927,1
145.8880203,1.185073615,2.112270109,13.30685014,13.52547023,1
223.1482167,2.622607782,-7.191192908,-10.68892773,13.147034,1
55.5,0.238,4.73,0.739,4.8,1
43.1,0.29,-0.597,0.885,1.11,1
281.1267593,-4.176105685,8.449770409,8.66738331,12.80476521,1
135.3470139,-0.2187247494,0.1971312743,-8.711520433,8.716495254,1
269.2519554,-7.381940777,0.2084928529,0.9931115717,7.451361587,1
14.0,-1.78,1.4,-1.02,2.49,1
169.0850603,-7.078729316,11.20125726,17.89144143,22.26387768,1
4.79,-0.0992,-0.13,-0.261,0.308,1
57.10455842,2.881849351,-5.901846188,-11.1787256,12.96536733,1
155.7470589,1.279247409,10.58814161,0.1515072139,10.66621635,1
260.8703434,-4.653725263,-1.946839076,-2.179924441,5.495399146,1
83.88303108,1.835146586,-0.1860999173,-1.161768075,2.179931474,1
145.9883301,-0.1490631965,0.2602116215,0.4558958562,0.5456839344,1
223.8006727,3.922883533,-2.865068134,1.358964838,5.044245836,1
14.97834271,-2.130385807,-1.469652631,13.4201949,13.66748162,1
19.88263746,-0.2329887762,2.82283048,5.982701486,6.619318149,1
284.308768,-0.7327534774,-1.132481053,-3.732912174,3.969140246,1
276.8707005,-1.818933719,0.04423184752,-6.175312278,6.437775863,1
106.18818,-5.462251346,9.087447867,-29.35176425,31.20807529,1
63.62413658,-0.4078391987,-0.07588984251,-0.08006943226,0.4224963836,1
219.2535619,-0.4833217826,4.061628312,1.470264249,4.34650451,1
165.2707443,-2.007523088,-3.538717956,-11.18372613,11.90077325,1
42.46573817,-0.8014630853,-1.225517929,0.2123603475,1.479639884,1
261.6733713,-2.237118981,0.8299907734,22.47718346,22.6034812,1
167.4087682,-2.412710721,-10.56405225,-7.040512499,12.9224297,1
41.6,-0.112,-0.271,1.02,1.06,1
33.19242458,-1.330590055,15.79446851,3.291149769,16.18849506,1
293.5235463,1.272022881,-9.634654866,-12.06612243,15.49309289,1
12.0,3.38,7.75,-3.31,9.08,1
153.3761113,4.163366649,-2.005806053,6.246437225,7.770125982,1
161.8951702,0.01136552542,-0.7717336482,-0.5541780496,0.9501659379,1
280.9962663,1.151030687,-10.18733954,-6.703115877,12.24902122,1
101.09994,-1.412086646,-1.153652432,-0.9026107067,2.034602841,1
47.5,6.0,11.1,-1.99,12.8,1
271.1892641,-9.355518731,-1.052561967,-16.57401931,19.06126264,1
69.21012629,-3.974417091,-8.180702595,7.561165538,11.82755725,1
69.20032733,-0.8661408918,2.881804035,-1.176115973,3.230827034,1
105.887915,7.318409024,-8.603226491,-18.38200996,21.57482113,1
39.7,-0.633,0.79,1.61,1.9,1
80.23156742,2.83453719,-2.777318384,1.699058781,4.316815867,1
151.1076003,-3.418326417,-3.221750336,-0.9466048649,4.791731575,1
212.2873565,-1.130486933,-3.512945768,-13.20500801,13.71098192,1
0.7294852916,18.94634462,-3.45564744,37.98246272,42.58606519,1
110.7114322,2.626195634,4.585007615,-2.090788608,5.682481442,1
11.6,-0.984,-0.462,-0.629,1.26,1
62.14353242,0.938413939,-3.56320551,-12.32592943,12.86489761,1
21.46725592,1.761366419,0.6547856806,-6.549154596,6.813411911,1
224.8747149,25.7335189,7.633165228,19.31895142,33.07115194,1
7.766080167,19.45230186,5.690979804,49.32887009,53.33026085,1
21.83833717,-1.279513749,-0.5610282089,-7.964007121,8.085624126,1
91.57545875,-0.01191611387,-0.4770790029,2.173523494,2.225297901,1
225.8383425,-12.41289506,-10.33954841,-15.71624213,22.53855567,1
297.9904093,-0.3805319707,-2.582241822,-9.248613503,9.609871442,1
256.8853178,5.931310308,-3.887252939,0.9629852548,7.156711395,1
40.5,2.93,3.95,6.05,7.8,1
68.79916125,-7.26584431,-41.77545094,-11.91250789,44.04416691,1
88.69706587,5.110682827,-6.560380665,4.694036552,9.549432056,1
207.4792787,8.20741443,-7.156325961,37.2028862,38.76376394,1
4.02,-0.303,-1.72,0.851,1.95,1
100.0660596,1.617441006,-0.9852097906,-2.547305585,3.17419588,1
22.9,0.584,3.41,0.559,3.51,1
173.5896469,3.139930539,-10.30635844,11.08458308,15.45794845,1
77.62481496,-0.4161266036,7.14321241,1.957503959,7.418252263,1
158.9464834,0.827372244,-3.62716294,-1.463635261,3.997884941,1
26.29131892,0.7824323718,-0.1765230551,-1.749055983,1.924203118,1
24.9,-0.165,-0.466,1.84,1.9,1
1.64,2.4,2.31,3.37,4.74,1
41.07168592,0.6348569079,1.08589519,9.359005426,9.443155946,1
14.0,0.365,-0.179,0.073,0.413,1
112.5267541,-19.60773722,-46.71468288,4.426886332,50.85589718,1
101.6921633,-4.085009281,2.277263917,-22.18686218,22.67443682,1
48.1,-0.0432,0.387,0.518,0.649,1
115.2848431,-0.9324483173,-19.33979558,4.859351957,19.96272663,1
6.684182292,-0.1463022692,-0.1450542176,0.8607013732,0.8850152167,1
245.3217281,-1.158797836,-4.369654955,-22.08845588,22.54632077,1
181.9041859,-2.214230786,0.9445615554,-0.9676747218,2.59449588,1
143.4207746,2.410152418,-3.880091854,1.054560546,4.687861497,1
103.0874017,27.75004817,-40.13344987,70.0634102,85.37939108,1
294.9489277,4.170075451,-9.229943343,45.91914346,47.02285742,1
87.33826758,0.4663059466,1.31883569,-3.229591452,3.51952124,1
262.7273469,-3.197798679,-0.6732565963,-2.443853722,4.080638657,1
229.5322482,-10.22629369,4.073375076,-9.784447668,14.72769104,1
161.5240762,-4.339315215,-21.18807355,-0.5945318775,21.63602518,1
33.1,-8.42,-48.2,8.25,49.6,1
62.0,-0.974,3.9,-5.51,6.82,1
2.913211292,-0.410605553,8.99403392,9.637910011,13.18903152,1
20.0,0.661,0.237,-1.66,1.81,1
142.4178222,1.886068818,10.04994868,-4.227327002,11.06476469,1
170.1791665,-3.983391982,-16.44506481,-7.050857978,18.33090741,1
239.1785795,-9.736502838,-2.049796265,-6.734411345,12.01471799,1
121.4529491,0.3762398221,-5.277674044,-1.622306182,5.534191636,1
14.2,-4.0,-10.7,1.41,11.5,1
112.6270481,-4.785618567,-1.329257475,-1.600704375,5.218364208,1
48.9,-0.679,-5.48,1.27,5.67,1
216.0715902,5.188586451,-15.68439936,-15.67476081,22.77322856,1
115.9768727,2.364430553,0.166771946,1.577860034,2.847452723,1
204.2872788,-4.207266082,-2.654504636,-16.22206136,16.96769747,1
42.7,3.29,3.86,-2.02,5.46,1
1.92,2.49,0.33,2.05,3.24,1
59.79613638,-0.1592813703,-1.739553089,-1.931221309,2.60404133,1
57.5,-0.427,0.248,-0.471,0.682,1
241.2262948,-5.744571875,-6.568531099,-4.754137743,9.937179303,1
210.8017708,0.327076579,-6.050322781,-9.831527109,11.54869301,1
61.7,-0.378,-0.24,1.53,1.59,1
130.3396867,-9.377769141,-16.56052159,-4.746687221,19.61439444,1
62.8,2.74,-3.27,-0.204,4.27,1
121.3258617,16.23646188,-5.962291195,9.025558013,19.50980031,1
51.9,-1.33,-6.53,-0.222,6.66,1
38.66737808,0.231612232,-0.6732717991,4.032718216,4.095089175,1
274.7627454,-6.285152224,-10.26276628,-20.80351855,24.03359928,1
78.23405954,0.3459247863,-3.234339976,20.78585528,21.03883074,1
147.393668,-0.3499391922,-27.54582129,-15.16510229,31.44638383,1
211.1430538,-6.878503695,-1.348728703,-12.72766004,14.5301828,1
166.2179096,-0.1985745133,-0.04523055196,0.3647548673,0.4177604019,1
289.1570655,5.110535477,-5.560026147,36.01378707,36.79706949,1
60.98918654,-6.371578165,2.696585001,6.87116427,9.750973151,1
148.7688274,0.6550267321,-0.5506264508,-1.07265417,1.372164887,1
115.0341071,3.124181356,8.757126961,4.837288073,10.48079852,1
87.35314308,2.75529397,9.763596497,3.130678782,10.61699633,1
27.2,-2.65,-5.05,-0.00303,5.7,1
51.90318267,1.589255673,-1.827447265,-8.14105204,8.49364618,1
50.1,1.63,0.941,-0.291,1.9,1
64.79754246,-4.23030265,9.575674587,-3.181554236,10.94126554,1
140.1712111,1.290196612,10.46883268,0.7044923493,10.57153605,1
162.3464991,-0.8269657163,-0.1282727087,0.495204275,0.9723957311,1
187.0424823,-2.465541045,-8.277855252,-8.093513592,11.8366694,1
262.2656053,4.586711201,-0.8490127891,3.02380279,5.55896804,1
47.72102367,0.8768673165,-1.244185457,0.05809325695,1.523242781,1
13.61436708,-0.3437375622,-0.1614721759,-2.935643735,2.960106909,1
53.21992567,0.6628273563,2.357534786,-0.8526018101,2.593114,1
173.4916012,-1.475004002,-4.351171614,-3.640105752,5.861629561,1
0.226,0.988,-1.81,-3.76,4.29,1
11.0,-0.293,-1.11,0.694,1.34,1
93.03967817,2.215516881,1.580736718,6.295142192,6.858283958,1
269.0210844,-0.464913286,-0.7801413596,-12.65210933,12.68466143,1
131.7765052,0.7211561099,0.1220653045,0.1209122336,0.7413405706,1
15.19423971,5.759752416,0.2605519295,-18.01162042,18.91193024,1
118.3045225,-2.44390664,-6.898211735,-16.05150393,17.6411106,1
245.0105551,-2.663282769,4.821276643,4.040099741,6.830826413,1
45.0,0.439,-0.0986,0.856,0.967,1
123.4789002,1.017533053,-2.28065881,1.783443459,3.068786192,1
56.3,-1.67,-0.52,-3.74,4.13,1
11.70881521,3.1913492,0.5252606446,10.79969154,11.27359507,1
8.03,0.431,4.82,-0.46,4.86,1
5.97,3.95,1.47,1.01,4.33,1
174.3548429,-1.658826137,-0.3725947775,24.67223055,24.73073981,1
14.47688008,-0.4452467608,-3.761770814,-10.64457309,11.29849993,1
42.0,0.553,-0.0225,-0.293,0.626,1
48.54341754,0.5985980313,0.9801617432,8.436291407,8.514108841,1
59.08406438,1.283991108,-3.198716984,-10.36159592,10.9198486,1
108.4147015,-1.18415034,-25.92436968,-16.65967049,30.83860853,1
180.8711362,-1.772295303,1.074195496,-0.4627157561,2.123448252,1
137.0119146,-1.342551119,-9.880332649,2.71045635,10.33295652,1
176.7991169,-1.007805478,-2.568868362,-2.310584275,3.599104922,1
94.45499304,0.3951852393,1.158504452,-4.026480407,4.208425882,1
269.2318804,-6.159312542,-2.870123929,6.81481056,9.623740714,1
16.89067279,1.979208239,-2.761718305,-7.900543782,8.600171236,1
100.9227689,0.2487697168,-0.516151852,2.101152506,2.177875331,1
188.3432048,-2.284056189,-4.607959691,-1.461480124,5.346599792,1
90.48226883,0.8835217403,2.093137727,-0.7655543107,2.397479846,1
14.23617908,3.557037283,-0.1421256396,-8.395490706,9.119044803,1
98.02429375,1.660852343,9.444014586,2.700474569,9.961947847,1
94.31345237,-0.3392724822,-10.55381729,3.522263891,11.13124018,1
28.9,0.26,0.785,-0.478,0.955,1
48.3,2.72,2.55,6.26,7.29,1
50.0,-2.59,-0.574,3.41,4.32,1
53.6,1.69,10.7,0.569,10.9,1
148.176605,1.445954158,-7.568069345,-14.75700523,16.647392,1
10.10494246,-1.005639231,0.3913876189,-10.52842517,10.58358309,1
169.8479235,-6.159897848,-3.483427269,10.1919869,12.40786864,1
278.0451303,-2.222170574,-0.09763647806,-2.177166894,3.112495884,1
55.2,-0.927,-0.0645,-1.34,1.63,1
179.3967847,0.01888153642,-6.722795266,-2.344074788,7.119762588,1
39.4,0.664,1.96,3.44,4.01,1
5.81,9.42,-9.64,1.48,13.6,1
121.5030961,3.265714673,1.435468639,-3.564006287,5.042579037,1
62.7,-0.155,0.00525,-0.227,0.275,1
150.0001386,-1.571912393,-4.621098969,3.550100731,6.03561757,1
6.47,-0.36,0.249,-0.218,0.489,1
42.7,2.28,1.3,0.482,2.67,1
19.64193546,-1.570850246,2.555417427,0.3333205283,3.018084044,1
81.14499942,-2.772038641,2.47899198,10.53415661,11.17130498,1
84.45744571,-0.09920093715,2.36469514,-6.033125535,6.480758262,1
75.88522917,-0.3687338975,1.675870478,-1.985061302,2.623923573,1
295.4006321,2.262108811,-1.099903364,10.97907826,11.2635289,1
4.78,1.38,-0.621,1.44,2.09,1
36.21384667,-3.243246455,9.641171004,3.279057727,10.68751821,1
159.1076167,16.8406652,-2.89261466,43.01327375,46.28300922,1
29.6,2.43,7.13,2.1,7.82,1
207.5595807,2.223315167,1.418688884,1.078861574,2.849517639,1
158.4450054,-2.942597244,11.39635195,-0.581349476,11.78446789,1
5.467379667,-12.08186781,-10.67777592,0.2936091632,16.12676765,1
156.5694811,-2.277617381,-1.632359008,-2.447108867,3.720279381,1
235.0430019,0.03438308984,1.763870928,-6.344768096,6.585476827,1
66.70068404,36.06765396,-20.74332029,15.26628017,44.31952515,1
51.9,-1.05,-1.8,-0.327,2.11,1
158.3848284,-1.25342742,12.26910618,-1.805551927,12.46443198,1
152.0411026,4.397534187,-2.613066004,-3.312601449,6.094239019,1
30.1,-4.23,-7.26,-4.67,9.61,1
72.73337867,0.4521061295,-4.377563899,-12.67984385,13.42184435,1
242.1296992,6.87384171,3.107724076,12.9567633,14.99284376,1
29.48840971,5.524906601,-14.53785509,-1.249783874,15.60242877,1
128.6332835,-11.44485343,8.188642529,35.1275971,37.84159899,1
186.8889082,0.5410107046,-0.2022809172,-0.585322659,0.8223215716,1
304.5953499,-1.277901379,-5.000311369,-9.584614395,10.88581549,1
15.99728471,2.846053574,-2.556424026,-4.798575997,6.136909348,1
89.338934,2.769667595,-28.09965787,-4.689878305,28.62266216,1
26.2,0.132,1.15,-1.48,1.87,1
39.9,0.384,0.839,1.37,1.65,1
226.3703449,6.432525448,2.025800607,10.1689594,12.2020075,1
47.9,0.393,0.116,-0.0982,0.422,1
28.7,-0.24,0.147,-0.208,0.349,1
30.1,0.904,0.0368,0.0473,0.906,1
183.1980071,-1.608614927,2.336573687,3.311724367,4.360589049,1
26.49708454,-0.7229427266,-7.388715361,1.429191799,7.560314151,1
189.9433787,1.285542959,1.079554469,3.420560346,3.810287605,1
101.140091,-0.6973184735,-2.184187061,-1.021734862,2.510153043,1
57.7,-0.468,-0.398,-1.74,1.85,1
52.0,2.63,-1.01,4.78,5.55,1
198.1943772,2.872438257,-12.09553977,-8.4549756,15.03461328,1
162.8379471,-1.152940314,5.402572324,0.7101373243,5.569681688,1
247.008083,1.784810392,-11.69891027,-13.4580147,17.92116651,1
232.5335502,22.34008262,-7.305546904,18.24458051,29.75424382,1
139.5493807,1.642606838,-7.856411921,2.317628124,8.354206463,1
20.9,0.428,0.244,-0.0434,0.495,1
37.8,6.76,-6.68,3.34,10.1,1
59.21249754,1.594388651,0.04112522185,4.715627396,4.978042607,1
132.919871,0.6895815839,-2.856740822,1.101328915,3.138377967,1
47.1,0.0526,1.18,0.185,1.2,1
78.99881225,1.69722451,8.887198273,2.278465958,9.330287847,1
106.810001,1.912189646,8.651181845,2.758028128,9.279339185,1
140.8190034,-1.114692142,-15.41280905,-13.12241258,20.27300998,1
106.3396102,1.062703963,-23.61953293,-33.62104561,41.10214573,1
191.8806558,2.956000232,-9.260206193,-17.26659861,19.81476176,1
10.3,-1.27,-3.23,1.25,3.68,1
21.2,-0.608,-0.0414,-1.88,1.98,1
41.7,-0.209,-0.713,-0.967,1.22,1
20.4,0.831,-0.141,0.919,1.25,1
79.36832217,0.3286782045,-7.90466256,-20.37908086,21.86089331,1
179.136014,1.784087822,-5.354725728,9.744518201,11.26106975,1
48.9,-0.341,-2.35,0.378,2.4,1
245.1310091,-3.062173973,1.942071987,-1.856152416,4.073555552,1
159.0775037,29.30131214,-7.796463928,50.83464038,59.19047563,1
11.84152529,-2.071783842,-5.162388001,-15.69946646,16.65580335,1
237.8736633,10.10220525,1.602305196,0.09816422582,10.22895738,1
49.0,-0.291,-2.54,1.41,2.92,1
127.4488396,-1.145793921,-2.544394256,-4.072608506,4.936894356,1
20.4,1.04,-0.341,1.45,1.82,1
158.7759804,-13.75801077,-79.33257082,20.69437676,83.13360862,1
37.8,-2.45,-2.23,-0.639,3.38,1
46.4,-0.354,-0.293,0.164,0.488,1
178.373764,-0.2797303765,-1.534148589,1.791133717,2.374872832,1
268.7801764,-11.2562971,-1.576308475,-15.00898631,18.82707207,1
180.4799822,-2.495208355,-11.69731047,-2.41991566,12.20283282,1
283.515775,-1.720611911,-6.557612593,-17.93544056,19.17401409,1
129.1888885,2.907004365,-3.259905757,-2.802668695,5.189663933,1
4.09,-5.02,-8.43,1.87,9.99,1
145.8880351,-0.177812421,-0.4346416658,-0.1570465645,0.4951709383,1
47.6,3.71,8.94,-1.45,9.79,1
152.6679929,-0.2752401352,5.08665311,-15.24135817,16.07012121,1
117.3408759,-2.130404956,8.828101049,4.242706641,10.02369957,1
79.46870017,15.3719569,4.907031907,36.16306415,39.59978825,1
43.3,-0.894,1.03,-0.319,1.4,1
0.392,-0.0188,-4.95,-0.237,4.95,1
123.253094,26.09830096,-3.695874156,19.59898394,32.84662799,1
183.4389491,1.221141288,-10.70152731,-6.750223385,12.71138814,1
78.88651254,-3.348402196,-2.504969113,-13.83555421,14.45369253,1
92.94933917,2.030626022,0.2792905015,-4.030117959,4.521426323,1
48.5,0.426,0.63,0.42,0.869,1
70.65455158,1.580995019,0.4749669886,-3.858543695,4.196843854,1
23.79404133,0.2943811418,2.186588805,14.97146823,15.1331653,1
7.3,-0.0691,-12.9,-0.51,12.9,1
82.22907329,-7.609931316,2.224514723,-10.41079907,13.08603292,1
96.65027883,-0.5312043393,-4.471933574,-0.7637422585,4.567676672,1
240.23255,-5.393799162,7.133949251,0.2298055154,8.946458064,1
36.9,-0.315,0.24,-1.98,2.02,1
12.8,2.35,2.16,0.136,3.19,1
271.9421043,9.354817066,-5.266124039,20.33862046,22.99791615,1
14.78267904,-1.723289935,-2.29744602,-10.17198709,10.56964085,1
298.2012053,11.53558468,-5.750588075,23.16694908,26.51125246,1
57.6,-0.531,-0.613,-0.0554,0.812,1
49.7,-0.101,0.0836,-0.654,0.667,1
150.3110539,-0.4762374058,-3.164232445,0.4958859507,3.238066075,1
133.7422915,1.977830927,8.071674242,1.266886979,8.406470298,1
162.3196692,13.63766923,-4.699691979,49.79768113,51.84478925,1
111.14766,8.068189886,-1.888198374,12.12117981,14.68277839,1
305.8500899,6.656408318,-4.244137454,41.53267455,42.2762762,1
99.08740162,-1.662581511,0.2849593771,0.646828351,1.806589617,1
71.216184,0.6456013128,10.72425427,3.610902418,11.33424223,1
35.76893679,3.86662981,4.201275902,0.6992579949,5.752434879,1
87.12747529,0.8510919128,-2.64010616,0.3679477394,2.798196476,1
76.12613517,11.70951127,1.625486775,-12.68523498,17.33983991,1
187.8655737,-0.7117549565,-0.2950873393,3.091953843,3.186510665,1
249.5576939,0.04081414998,-12.41518016,-6.4145552,13.97443675,1
57.94073817,-0.01179726921,-1.197320023,-1.838574516,2.194099056,1
246.596532,-12.33590478,-3.443591943,-7.861063381,15.02761424,1
8.61,-4.79,4.81,0.806,6.83,1
22.45012117,0.1882511445,0.4918859071,-3.299975556,3.341740401,1
28.3,-3.94,-4.38,-4.95,7.7,1
28.0,0.946,3.11,0.325,3.27,1
25.41297742,0.07025561169,19.60809039,5.342134334,20.32290688,1
114.0083977,13.30543979,-0.5511144009,46.26009227,48.1387016,1
68.38702921,8.162194403,-6.89093546,23.00918886,25.36787695,1
11.75896121,0.9646132658,-0.8020117003,12.12571959,12.19043794,1
143.6815416,-1.938000571,4.836009287,1.640737921,5.462128977,1
170.4301082,-4.364800304,6.682524322,10.71896838,13.36427687,1
288.0227845,0.1183394587,-6.036068439,-8.449033075,10.38432888,1
187.8216642,-0.8606476519,8.329563349,-3.165991287,8.952420947,1
33.95364767,-1.005776787,-0.2117493135,-4.373109782,4.492272686,1
22.4,-0.485,0.158,1.1,1.21,1
214.0841158,-2.38064766,6.008800533,-8.503761259,10.68115737,1
26.80280929,-0.8147008891,-0.5698887871,3.540809505,3.677749681,1
180.4075666,0.6100098959,-7.198929943,-9.533555338,11.9618302,1
133.6220022,-14.85881578,18.94425132,24.19498549,34.13306882,1
51.4,-0.426,0.303,-0.238,0.575,1
116.4482557,0.8121352771,-0.845020895,1.060498978,1.58059549,1
25.5,-1.84,-2.23,-13.5,13.8,1
156.1281819,-5.245189252,2.599369193,1.743414005,6.108045751,1
237.1007515,3.785836492,0.9975943395,-7.980262381,8.888888574,1
32.4,0.517,0.158,0.0589,0.544,1
200.6536207,0.03122383922,-6.500978801,-8.403270426,10.62443665,1
72.12107554,8.876612474,-3.548673425,39.98813487,41.11493965,1
264.0121925,1.300599686,-2.312684595,1.778680317,3.194334555,1
26.8,8.1,3.24,8.06,11.9,1
38.79359279,1.630666239,3.47211817,-0.8050411427,3.919536734,1
36.0,1.57,4.79,-2.09,5.46,1
24.1,-1.08,-0.509,-1.36,1.81,1
24.46940292,-1.242541366,5.403160554,1.777502103,5.82216169,1
205.5520324,0.3948169013,-6.316774551,-17.12035273,18.25278058,1
25.1,-0.581,-0.288,0.612,0.892,1
124.2311097,0.6151209471,-0.1618023974,0.2353211939,0.6781812882,1
51.86481829,4.228606957,8.320921165,5.350828559,10.75872725,1
21.63775317,-2.820177598,0.728134981,-5.056306061,5.835221779,1
17.34524142,-1.198127378,-3.083326568,-8.206887011,8.848469153,1
18.24581254,-1.800717157,-0.5593196525,-12.90902196,13.04600585,1
292.951387,1.515778245,-3.690369587,39.46017807,39.6613422,1
93.99251437,3.808266996,10.53253342,3.209620579,11.6507005,1
31.6,-0.941,-1.65,-3.98,4.41,1
95.58717358,1.763389994,-12.8214447,-6.691438987,14.56963775,1
1.442172417,-14.73473435,-1.754141599,-19.87705529,24.80497402,1
158.2745034,0.4655708054,9.549467951,-4.924367148,10.75446354,1
101.2404673,1.645150669,-2.729340518,0.04505221188,3.187138229,1
203.5745998,-1.791385147,1.137287537,2.750869966,3.474157345,1
195.3138083,2.891542573,-2.298451595,1.732854226,4.080034553,1
11.9,-1.39,-1.32,-1.31,2.32,1
254.8978244,4.233207839,-7.866891301,-16.07096463,18.38705881,1
1.48,-0.72,-1.33,0.724,1.68,1
19.8,-18.6,-49.4,16.3,55.3,1
1.037758042,-0.6725819007,5.247250981,-4.604502232,7.01337651,1
157.2907995,0.8814857398,-3.15441497,35.54304879,35.69363624,1
17.70629367,-0.2968113908,2.578373596,7.45397438,7.892898167,1
25.7,-5.87,-4.98,1.28,7.81,1
269.1315014,8.853949251,-3.348910319,6.813948095,11.66351175,1
118.8152028,-4.403516766,-4.99116457,-2.753549745,7.203104877,1
272.6046033,4.822393169,2.176754665,-6.765078236,8.588365403,1
54.0,-1.16,-0.373,-0.624,1.37,1
16.45903579,-1.189443385,-2.446450909,-5.104738548,5.784310958,1
198.2546042,0.8180599684,-11.32862832,-9.968397564,15.11211407,1
101.1133273,1.821749445,2.089829957,3.541822827,4.497851624,1
84.64525158,1.241564004,1.128155941,0.8867746925,1.897521109,1
24.29550333,-2.534659227,-3.751450186,-8.293994737,9.449244657,1
283.565965,0.5060109528,-3.915851379,-15.72428789,16.21243871,1
54.0,-5.12,3.53,-0.693,6.26,1
45.4,2.47,-3.76,2.25,5.03,1
13.67849079,0.636349702,1.412236627,8.512243815,8.652031438,1
103.069049,8.685857003,-4.007927776,4.645888824,10.6344666,1
46.0,-1.26,-0.157,-2.49,2.79,1
71.878107,2.453896315,-0.04444994867,0.07088871896,2.455322409,1
158.6157707,31.56395305,-6.201441731,34.37779694,47.08050482,1
276.0174798,-3.726426735,-1.472834978,-8.456336832,9.357624255,1
84.29684271,1.967762314,1.52410468,1.061694734,2.705952569,1
215.8708352,13.56960296,-14.35659492,0.213050319,19.75579238,1
8.86,0.471,3.37,-0.0466,3.41,1
109.899051,2.919993955,-2.73626713,-9.692273329,10.48588026,1
265.3271518,-3.847836274,-0.7725214143,-4.612898249,6.0565224,1
17.99714167,0.07303793617,0.6189660761,-2.24867191,2.333447857,1
9.96,-0.282,1.64,0.322,1.7,1
130.6231097,0.8883120717,9.083497488,2.472145475,9.455714051,1
20.74528917,0.3357862991,3.957458119,-6.671348539,7.76409161,1
118.5544378,1.331687431,2.811855841,2.793073415,4.18105056,1
26.31137692,0.502849144,-0.3291538024,-2.379043769,2.453782537,1
180.4599222,-3.105161241,-6.693572052,-3.320280597,8.091365545,1
154.8945487,-0.1107456889,-4.171404816,1.475825536,4.426165808,1
48.6,-0.731,1.41,3.0,3.39,1
167.1979774,1.507142492,0.4306617585,21.58206362,21.63890982,1
51.7,3.59,2.74,4.42,6.32,1
19.7,3.48,1.43,8.72,9.49,1
146.9620492,1.227978875,-22.9947135,-11.46520291,25.72383445,1
58.14849033,0.9213605346,-3.780853495,-8.853491998,9.670991622,1
126.3948842,-2.110481738,-5.779579155,-9.755158964,11.53346413,1
29.5,-0.371,9.89,-2.68,10.3,1
39.6,-1.12,3.91,8.76,9.67,1
120.9715351,0.8671039282,10.64640444,6.189668947,12.34543634,1
149.5618025,1.223965639,-6.138230991,-11.1765516,12.80981176,1
44.9,-0.607,-0.0103,0.213,0.644,1
137.2827113,3.594879293,10.22580603,2.368220572,11.09498692,1
18.1,0.9,-0.0308,-0.479,1.02,1
134.4945062,2.350409954,-10.88780791,0.7389955994,11.16310452,1
234.4206579,-2.58247191,-0.6329331739,-7.808179409,8.248480542,1
80.88401942,2.041228193,-6.152792897,-14.24899095,15.65430343,1
84.04589967,9.721973677,3.011631518,-11.00023349,14.98638827,1
43.8,-0.868,0.424,-0.109,0.972,1
40.01821892,-3.771108525,4.667217713,3.1748276,6.788498433,1
21.86842517,-1.628004001,-0.9793369934,-8.479932101,8.690152267,1
42.39720092,10.67864365,-35.92244421,3.408441406,37.63074409,1
149.1602964,0.2067573262,-2.737592986,-5.072905136,5.768147924,1
81.34564208,-5.208749989,-11.44467567,1.464730737,12.65926988,1
103.881427,2.378711647,10.34154465,2.560847737,10.91621527,1
104.0619551,1.839420462,7.910149003,1.065398945,8.190787495,1
130.7635227,-0.05586590633,7.293085318,1.681211325,7.484563179,1
97.17520671,-0.6495902102,-0.3109952742,2.706549241,2.800731029,1
9.28,4.48,6.33,-0.741,7.79,1
137.2024753,2.014539747,9.964263582,2.277375745,10.41783852,1
35.8,-2.19,-9.73,-0.804,10.0,1
61.4,-1.16,-0.0253,-0.0468,1.16,1
10.91650658,1.045647196,-0.3532414073,-4.053387539,4.200965138,1
17.3,-0.481,-0.739,-0.535,1.03,1
198.3650197,-1.185138811,-11.70884001,-10.95833234,16.08062611,1
53.3,1.64,2.83,-0.313,3.29,1
14.5,0.676,1.16,0.0858,1.34,1
302.1561389,3.588719836,-2.619268145,15.93151789,16.5394298,1
11.94190629,-0.8956570517,-0.3221099541,-3.560253836,3.685290186,1
24.8,1.97,-1.54,1.01,2.7,1
135.0260712,1.185191656,11.0523275,-0.7615513068,11.14174954,1
296.9966589,7.172009947,-2.919856253,24.83403938,26.01331965,1
301.2426893,6.941032065,-9.916395936,38.817396,40.66082963,1
132.8089517,-2.990583004,-9.57653939,-6.741856019,12.08744456,1
148.5659176,1.632368802,10.45628807,1.201054348,10.65087412,1
192.2046162,1.637396092,10.88090819,1.832308055,11.15493531,1
63.6,-0.397,-0.12,1.42,1.48,1
226.1595515,-1.130905886,-0.1824478926,-11.04699484,11.10622935,1
28.99654833,12.19615047,-42.51610605,1.787340628,44.26691707,1
14.65218404,-0.8181161016,1.640481082,17.30929264,17.40609387,1
42.7,0.171,-0.969,1.35,1.67,1
12.6,-0.988,-0.296,0.23,1.06,1
89.730075,-1.235376627,8.298799394,3.219313216,8.986668146,1
191.8836684,-1.462604105,-15.07830154,-4.298365994,15.74707396,1
54.70131804,-0.4272633567,-1.463231511,-4.023728707,4.302788995,1
85.36083992,-8.681710158,-9.314117521,21.39212033,24.89473214,1
5.818708667,-7.039928362,-6.933047692,-2.857736603,10.28564048,1
277.1919125,-2.229250383,-0.629428499,-12.13100664,12.3501846,1
39.1,-1.62,-6.45,0.309,6.66,1
63.2,0.477,0.134,0.2,0.534,1
35.99960879,1.859084648,-0.07023850858,-0.564975518,1.944306178,1
11.2,-0.495,1.27,-0.564,1.48,1
17.8,-4.67,-7.16,-6.73,10.9,1
14.1,0.654,-0.0143,-0.972,1.17,1
45.3,-0.775,-0.924,-0.557,1.33,1
106.138033,1.470475334,9.888443906,2.947312438,10.42258467,1
128.0611376,-3.219618441,-6.94432931,-11.27850599,13.63064011,1
52.2,0.486,0.18,-1.94,2.0,1
190.8969602,-8.059602081,-2.280801482,-11.70770916,14.39547481,1
215.3789842,2.266875315,-9.635614979,-12.8090486,16.18812916,1
189.6370277,2.602426995,2.121782652,3.427705643,4.798307396,1
282.8633119,4.097714988,-2.035783558,1.030989835,4.690268954,1
135.6897604,-8.684060739,7.860430713,3.804534718,12.31559038,1
10.4,-0.686,-0.37,-1.24,1.47,1
17.2,-22.6,-41.7,18.4,50.9,1
25.89480342,-1.880447597,7.003272167,2.002203584,7.5226806,1
154.440103,6.233224272,-6.789251211,-0.8246135277,9.253486062,1
27.7,-3.25,0.198,-1.97,3.81,1
50.0,0.201,0.678,2.18,2.29,1
8.990898208,0.5689176377,-1.026826325,-0.2199617279,1.194329411,1
240.021756,-4.341292158,-4.376904918,-9.555720963,11.37171568,1
209.5570903,-9.486381172,-3.619676457,-15.10826151,18.20310553,1
194.7120289,-1.275174238,0.7383489704,0.4186091852,1.531816631,1
13.82498108,-0.7947629801,-0.1660300805,-1.68098036,1.866791138,1
63.17282658,0.3909539017,0.1734009343,0.02023048908,0.428161313,1
32.7,-0.528,-1.73,-1.56,2.39,1
159.619537,7.162925713,-0.5333390115,6.54138657,9.715024114,1
35.6,1.72,10.5,3.25,11.2,1
7.53,-2.47,-32.9,14.7,36.1,1
188.4477604,-2.219069503,-9.610288349,-8.520404774,13.03377187,1
48.68382554,-2.90884653,9.132106562,10.98509154,14.57837421,1
48.44312554,0.3021222706,0.6496186423,-5.552748703,5.598776688,1
158.2544444,2.670459056,7.509925218,-0.7986442888,8.010503171,1
22.5,0.407,0.172,0.0203,0.442,1
61.89913,-0.02198377669,-2.576160425,1.568263584,3.0160465,1
125.869113,0.3191881369,-0.2226067159,-0.2204335982,0.4472424263,1
229.5121732,-12.39204623,-0.3909714434,-15.4887714,19.83980111,1
263.6307535,2.963389066,0.3384789419,8.948592283,9.432579,1
56.3,1.49,0.766,-2.87,3.32,1
147.3122275,-1.295117337,-14.41559917,-2.842145587,14.75007186,1
19.54072258,1.065544613,0.9843072729,-12.84606148,12.92770442,1
61.8,-0.544,-0.147,-1.45,1.56,1
47.60067367,1.920445622,-0.5751628295,6.947714263,7.231158769,1
218.9624669,19.63321939,6.101978254,11.26754831,23.44472407,1
156.4190381,-0.2492831207,3.949333413,0.0978974466,3.958403768,1
132.6684247,-2.348714553,11.39319211,19.65429275,22.83883776,1
287.3402078,3.430135746,-2.74877257,-13.83719494,14.5185931,1
52.78829817,-0.1767951699,-0.5554504037,-7.412874886,7.435757915,1
112.5529345,21.01469191,-8.677529984,4.34641315,23.14752924,1
113.3190771,2.20189857,9.067415891,-5.506731116,10.83468854,1
135.5074869,-2.392384776,6.695139105,-1.317663031,7.230811048,1
17.49295717,-4.172573674,2.488479087,-5.930123908,7.666111713,1
61.9,-0.0968,-0.399,-1.42,1.48,1
0.8472040417,1.80065927,2.450171639,-0.07368836582,3.04156947,1
176.0110591,-1.581095883,-8.6604222,-4.786491557,10.02064261,1
132.598926,-0.7632689264,-5.525146337,0.7997488278,5.63466234,1
27.05921354,-5.161973433,16.8192106,6.065999751,18.60989435,1
148.6684504,-0.05190558717,-2.730380153,-3.4539,4.403077921,1
69.22016429,-2.894243402,-5.517394098,1.005188996,6.310997339,1
101.9056453,-3.263769304,-5.069026678,-6.743643513,9.045659145,1
80.45304446,1.527416105,1.736690876,-1.973184437,3.040156572,1
9.88,0.455,0.867,0.36,1.04,1
170.3099739,-0.3798145173,0.4191775346,0.5642902609,0.7989946005,1
46.4,0.177,0.415,-0.424,0.619,1
206.0137684,-3.129795268,-5.357762187,-19.74421357,20.69626062,1
0.112,-0.179,-0.828,-1.44,1.67,1
44.2,1.5,-2.61,-6.35,7.03,1
21.02635417,5.10783114,-10.12042166,9.882613063,15.03924581,1
24.0,-13.4,-30.3,19.6,38.5,1
10.4,0.263,-0.196,-0.592,0.676,1
136.7236398,-0.8340708143,-3.038412643,-7.76502228,8.379928193,1
51.69257067,-1.719432673,2.913754683,-4.937882987,5.98574168,1
17.79409917,-1.14299939,-1.407767308,-14.13900716,14.25481602,1
46.8,-1.24,-0.372,-0.188,1.31,1
186.2971602,3.448572309,3.983182359,-9.261307808,10.65505584,1
39.4,1.51,0.357,-0.108,1.55,1
229.1909636,17.82676304,-4.477753015,12.26963126,22.0994933,1
30.66406233,-0.1108258962,0.826622631,0.5370644188,0.9919806163,1
62.87629154,1.746104017,-2.764079119,-12.40334305,12.8270001,1
171.0022562,-3.321809936,0.6710360431,11.04048455,11.54889648,1
55.13714892,-0.5289742112,2.668838208,-1.601716674,3.157215134,1
64.3,1.63,0.637,4.83,5.14,1
23.0,0.648,-2.98,0.617,3.11,1
49.6,0.58,-0.23,0.813,1.03,1
303.6417482,-2.852699811,-4.151730105,-13.53840222,14.44517545,1
49.7,4.57,-2.43,3.44,6.21,1
150.5517619,-2.30954274,-0.9812662822,-0.0839180696,2.510759532,1
21.84836717,-1.321258045,-0.6689697102,-8.207208608,8.339755178,1
17.63608867,2.161236301,3.837420629,6.903078373,8.188359448,1
186.026361,0.9659698199,10.16498446,-0.647057635,10.23126045,1
2.552161292,-3.597869559,-2.058815449,-8.099791163,9.098901214,1
126.9121842,0.02596752126,2.887722879,12.66161457,12.98676639,1
40.35961012,-6.66367056,1.948454516,-2.822769669,7.494598651,1
263.3998825,2.77363727,1.986756409,-0.5681967491,3.458773233,1
196.3273622,-0.9147502573,-2.65716892,-2.122148688,3.521481188,1
277.4629333,-0.3487966463,1.552070743,-6.295088983,6.49297528,1
91.53402446,-5.315134231,-1.344053854,-7.640543244,9.403990309,1
50.57997667,1.289122771,-2.922592165,-11.88990606,12.31150879,1
151.4945393,14.82004406,-16.81491757,-18.66617061,29.16849472,1
165.100104,2.303201142,-2.459927718,-4.809045437,5.872214054,1
54.29397192,-1.053990735,3.82285463,5.637508771,6.892504562,1
285.794374,18.95749292,-11.69853137,35.02357513,41.50774614,1
213.4015488,-10.06441352,4.303360393,-6.811731416,12.8922851,1
33.03095921,-1.615326799,3.526143811,-1.822446141,4.285356553,1
33.8,0.941,-2.66,-3.16,4.23,1
255.3997162,37.36040785,6.453907546,41.68186275,56.34563585,1
181.4829429,0.8491399661,0.7051806396,0.2564483535,1.13317438,1
293.182258,-0.6101420795,-3.258647144,-13.31516605,13.72168727,1
150.6257933,7.785148981,5.485754229,0.242859132,9.526858069,1
16.2,5.51,1.61,5.04,7.64,1
11.6,0.285,-0.199,-1.22,1.27,1
27.5,1.55,6.79,0.697,7.0,1
46.6,-0.438,0.271,0.393,0.647,1
167.6220486,-2.249693857,-0.3597774249,-3.730378575,4.371073845,1
276.6599045,-4.684852623,-2.36682835,2.714440643,5.909137716,1
57.30531433,13.16721395,-5.513553647,30.18127599,33.38688691,1
27.0,4.24,1.24,1.77,4.76,1
166.7061314,-2.505722819,-1.16196805,-3.213122769,4.237095057,1
144.834066,-0.9036848402,-14.53595826,-9.437214859,17.35430071,1
41.98434192,-2.867834452,1.883688124,13.4162878,13.84808772,1
256.1023652,32.1352611,19.13903377,28.92653134,47.2834203,1
35.0,0.21,-1.3,0.207,1.33,1
95.15763104,0.4616655962,-3.214952363,5.244213937,6.168535777,1
90.65276683,0.9490278049,8.719600115,-1.944966067,8.984151209,1
240.7444788,-8.841585313,0.4937877139,-8.926223175,12.57358013,1
242.470986,-3.277117621,-6.615265555,-17.11255722,18.63708274,1
240.7846308,-8.450013653,4.067824314,-8.584987856,12.71424169,1
110.4807562,1.825495172,9.350086083,1.373765749,9.625163621,1
223.9412017,-5.063768862,-12.81589686,-20.49170057,24.69410374,1
21.19646592,-0.5671928187,0.208094219,4.105801395,4.150013975,1
179.9785017,0.9378516562,9.37937771,-0.1040892094,9.426724061,1
244.9402911,-2.873106594,-2.093121501,-12.76094707,13.24679845,1
56.0,-4.51,-2.4,-8.24,9.69,1
231.5197319,-9.081551535,1.234117429,-6.729644694,11.37038882,1
73.71707742,5.514061185,-3.773326374,-1.364707389,6.819478641,1
55.76953083,-2.306389191,0.2228154615,-7.347555056,7.704261361,1
291.4958928,-0.3527851052,-3.736967218,-11.42793042,12.0285899,1
130.7211177,-3.215492061,0.4290669304,5.887370821,6.721950819,1
263.9218515,2.799494827,-2.236036661,6.750945516,7.642793769,1
260.5591704,0.003960319161,0.9211137821,1.026902046,1.379490521,1
188.9048638,5.369498718,9.299994741,2.014265513,10.92605529,1
47.3,-1.37,-8.46,-1.28,8.66,1
18.8,0.0214,0.26,1.27,1.3,1
95.82787658,-3.839677654,8.181299011,-1.823768781,9.219702303,1
63.9,4.36,1.1,4.42,6.3,1
31.19486867,11.39767926,-12.86543564,-2.574005141,17.37964411,1
12.1,-1.84,-1.12,-1.93,2.89,1
68.60860825,1.121148564,8.913452856,2.306482307,9.275045906,1
54.4,1.1,0.0637,0.139,1.11,1
149.7224045,11.15392638,-6.523818026,14.85398481,19.68784244,1
175.9064831,0.7076538657,1.188121476,-0.6028550235,1.508589015,1
109.166906,-7.868138512,-12.58089843,-0.1433211029,14.83937836,1
62.3,-0.439,0.229,-0.292,0.575,1
46.166503,-0.6233446173,-1.897810611,19.86892766,19.96908937,1
177.5367887,-9.52420681,10.096344,29.18291304,32.3154621,1
212.6888669,-10.86554522,-1.850998972,-14.43225204,18.15974033,1
34.82861071,0.5246966806,-9.309523948,1.542019526,9.450945295,1
36.0,-0.48,0.904,4.5,4.61,1
99.27308258,-0.6651761828,-1.994642842,-0.3270412034,2.127913384,1
206.3249389,-0.5114084445,-0.8535842885,-7.426085501,7.492455579,1
180.7808702,-1.638835384,0.5376508945,-0.782235686,1.893869734,1
101.6620503,-2.232061139,-0.2599748093,-23.80951832,23.9153266,1
77.11332696,3.943439127,9.338091105,3.504079635,10.72516814,1
13.1,5.23,10.6,-0.283,11.8,1
278.4867973,8.517582323,-18.94977577,-19.33203632,28.37905634,1
184.7626271,1.570653341,2.559343248,1.64489076,3.423865563,1
26.25617254,-4.917271551,13.72646271,5.398508509,15.54796553,1
79.38839817,3.285522993,-3.028226209,-15.30750304,15.9462994,1
5.5,2.08,7.96,-3.23,8.84,1
4.47,-0.625,0.596,0.197,0.886,1
281.0464563,-6.105392443,0.7505345678,3.257200835,6.960493969,1
132.0874212,0.02479321763,0.07643831134,-0.1385708249,0.1601854943,1
255.9317222,-12.63608329,-3.045950289,-5.044741437,13.94266223,1
12.8,1.59,2.57,-1.99,3.61,1
62.8,0.164,0.224,-0.451,0.53,1
85.92899187,2.192213534,-0.07238736033,2.049764836,3.002095267,1
49.73679808,1.855957119,-4.638657865,-14.33685004,15.18245674,1
203.0526373,6.074637258,-11.00180405,37.81952421,39.85294621,1
22.9,2.29,2.37,2.88,4.37,1
24.11807192,1.143522131,7.436730942,-0.7357924946,7.560026492,1
48.6,0.382,0.483,1.57,1.68,1
176.0913611,-2.496521932,-7.679006814,-9.216385404,12.25322518,1
294.9991177,1.502632096,-1.785035217,7.107227476,7.480436908,1
85.38741446,3.708903506,-18.07468148,-35.87431226,40.34124882,1
27.63138058,8.377501162,-20.48539727,3.267059825,22.37202957,1
38.92408579,-2.983633003,9.271995349,1.439649836,9.846042621,1
163.3795444,0.637784828,11.24464944,-1.938510156,11.42833025,1
98.08446975,2.407317541,9.94137758,3.780720763,10.90504541,1
75.47368217,-3.107967027,1.843584264,-2.539106619,4.416483262,1
284.6801688,-1.634877696,1.047032694,-10.45483094,10.63355973,1
133.2405712,-3.368204084,1.837988333,4.80096517,6.145914613,1
81.59637208,0.554344549,6.209652391,-0.06459528767,6.234681487,1
14.16597408,0.3410885543,-1.625780598,6.763020601,6.964047071,1
54.2,4.78,3.16,7.67,9.58,1
128.577086,3.026456841,7.465644838,-3.621744325,8.832458651,1
17.0,-1.02,11.3,-0.749,11.4,1
37.4,3.9,4.41,5.28,7.9,1
214.7767194,8.460462627,1.483573243,36.1421124,37.14879145,1
31.53615896,-7.58963797,3.09689474,1.18064413,8.281743905,1
50.24837104,-1.784157696,0.2237127167,-4.122854215,4.497909841,1
59.45340454,-3.163544812,8.779101967,11.87046641,15.09929203,1
59.99962825,-0.316683811,0.1958568737,-2.059169497,2.092564831,1
108.3571838,9.239370224,-3.228775765,13.77179266,16.89536114,1
133.5617762,-6.928332497,-0.8835718802,0.9459222025,7.04820965,1
114.652989,4.716911445,-1.219561955,-5.681403819,7.484312547,1
168.6550942,0.89567357,3.389200559,-5.066360933,6.160919142,1
139.9457291,-8.64991066,4.977609555,25.44576339,27.33284518,1
84.12620167,1.121245701,-4.099265962,-12.78114101,13.46917737,1
301.0720453,-1.015521903,-3.057849957,-13.59823093,13.97474921,1
194.570762,-1.703025971,-4.568211196,-0.0003689593077,4.875330873,1
27.33023958,0.3677471799,3.221167953,-0.0646233543,3.242736059,1
70.81501758,4.373189889,-0.9776749223,3.906453734,5.94483127,1
189.8731147,0.9282397838,1.035225996,1.600951858,2.120464292,1
302.1962899,1.188182945,-0.3313504186,1.04243342,1.615004411,1
46.1,-5.88,7.14,-6.44,11.3,1
46.4,-0.99,1.47,0.421,1.82,1
66.85351133,0.4389698114,1.489527317,-2.196225309,2.689756816,1
226.1194005,1.138331265,-0.5884224142,-8.745843004,8.839219924,1
28.72552233,6.044386688,-7.150336658,-0.5193871164,9.377189756,1
38.9,0.132,-6.87,-2.35,7.27,1
58.02097217,-0.4334284417,0.05098304272,-3.003869632,3.035406439,1
62.831837,2.368836723,-3.097735569,1.840197119,4.312038788,1
7.57,-2.24,-1.53,-2.08,3.41,1
144.442597,-2.283562099,-15.23671431,-12.19514125,19.64926433,1
92.61850371,2.423137037,9.874735694,2.928566265,10.5810443,1
88.34604187,-0.6925274111,-0.3435490626,-2.286400484,2.413554919,1
34.1,-1.8,-0.907,-2.09,2.9,1
65.35917221,-2.927456464,4.985559429,-5.458762897,7.95134558,1
206.3952029,-0.6122529609,-2.699455399,-12.8832486,13.17725342,1
229.2311146,27.33661961,4.77221558,58.93768377,65.1438054,1
93.31052433,-0.9661493294,-8.978206092,-0.9864235264,9.083758062,1
209.6875803,0.223716225,-1.368871484,20.33036186,20.37762183,1
15.95713271,-0.1301253989,-0.3913879113,1.290638369,1.35494078,1
169.3270761,1.158098217,-1.039712126,-0.9695285815,1.833624404,1
278.8782743,-0.7808611518,-4.251585053,36.35103108,36.60714657,1
285.724108,-3.136088919,-4.885654779,-19.97646732,20.8029787,1
55.6,-3.52,0.256,2.77,4.48,1
2.26,-3.11,-2.3,-3.48,5.2,1
92.18647446,0.03355804771,-3.396617752,-3.801105326,5.097699481,1
81.48628217,12.44670367,-10.44351424,43.06629162,46.0292613,1
119.7298731,-6.09800741,-12.87062446,-16.08042894,21.48066254,1
146.2089802,-1.422958667,-0.07328783154,-1.308607009,1.934589046,1
40.1,1.23,-0.315,-0.501,1.37,1
13.45389954,-0.9648684968,-0.1501168831,1.696412331,1.957376073,1
56.42198742,0.3665737899,7.986017795,7.440537479,10.92119291,1
147.6432015,0.1975663255,13.2059576,0.5017636085,13.21696317,1
17.4,-1.97,-0.796,-1.34,2.52,1
196.7580795,0.3283039096,-0.0271737653,-0.5181334734,0.6139903638,1
63.0,0.109,0.682,-0.755,1.02,1
304.1336062,-0.7347137564,-5.119187602,-9.704975236,10.99692822,1
100.0100999,0.3821117422,-15.14839095,8.766729258,17.50643595,1
125.1502142,1.321774793,-4.063902879,-5.080236375,6.638614075,1
190.7101995,2.422292407,9.113445173,-0.6203808099,9.450251625,1
59.6,0.555,-0.223,0.217,0.636,1
304.5351229,-1.617196885,-3.334546049,-4.912978526,6.154013415,1
219.2134109,-9.4675163,1.519352502,-5.579863996,11.09401546,1
51.5,-0.336,0.106,-0.0618,0.358,1
40.6,0.319,12.2,4.32,12.9,1
0.3078962917,-0.3546144797,-0.9367900211,0.8257303458,1.298136193,1
180.2392712,-2.744981235,-0.3027466071,-4.359749479,5.160813212,1
139.1782887,-0.784156204,-2.673772674,-0.1216460592,2.789042672,1
99.34334658,3.60991687,0.1110699078,3.017067382,4.706010191,1
143.7499992,0.7132106209,-15.02603679,-1.042626379,15.07904243,1
166.5890036,-1.963024023,-1.011458965,3.286718456,3.959675588,1
12.8,-2.12,1.51,1.39,2.95,1
7.71,-3.14,-7.04,-5.93,9.72,1
40.1,-0.781,0.000703,-0.188,0.803,1
244.6190801,9.712178421,-10.61331855,41.85380363,44.25731373,1
133.4112112,-3.167496653,-16.62769908,-8.710856774,19.03660783,1
8.950781208,-0.193597071,-0.4165942347,-2.3265615,2.371480338,1
162.6308372,-5.003378819,-9.875285332,-14.48900979,18.23421138,1
74.65618146,-0.744729379,1.627812797,-0.05736293972,1.791001635,1
55.6,-0.167,-0.736,0.314,0.817,1
22.56217596,5.194631302,8.921858813,3.030162807,10.75944449,1
30.0,1.42,0.719,0.626,1.71,1
31.6,-1.8,5.62,4.28,7.28,1
119.3969112,-4.14980754,-29.46073764,2.919213059,29.8944438,1
1.559274667,-0.1702348863,3.615639832,7.01206521,7.891190647,1
44.09552767,0.01492136344,0.2811832452,-0.6489766181,0.707430078,1
52.0,-3.62,-4.88,-0.911,6.14,1
58.02803633,-0.9540106559,-0.7267480215,-10.16865651,10.23913445,1
253.592904,-3.485848894,9.199576414,0.8856941271,9.87764156,1
190.8568092,-8.662726588,-1.948252933,-11.28832814,14.36192444,1
23.00384996,2.151666894,3.628320689,-0.340206246,4.232035176,1
12.6,-0.449,0.558,0.583,0.923,1
39.9,-0.33,0.361,0.617,0.787,1
64.99426346,6.633471445,6.083527949,14.32331841,16.91655125,1
224.2322967,-7.388294361,-1.654533111,-7.525187035,10.6748683,1
274.1403974,2.475386294,-5.236933569,24.94178485,25.60557834,1
45.5,0.771,-10.1,-1.11,10.2,1
165.3453369,1.539206723,-9.785384976,-0.8666414134,9.943539803,1
43.10989092,-5.696897771,14.3600132,-0.9641193223,15.47882907,1
50.5,0.813,7.26,-0.562,7.33,1
246.1849822,7.898972635,-5.445647593,-16.93631045,19.46503167,1
92.99961633,-0.1845565813,-5.600742649,-0.7617036268,5.655313587,1
14.91317404,-2.503963684,-1.465323937,-3.32155646,4.410186582,1
284.4693738,-0.2274119577,0.1413924536,1.703968104,1.724881249,1
1.351831417,-4.591644205,-6.940116391,-15.78357983,17.84292028,1
140.7487404,5.992304953,-11.10776379,-25.96815363,28.8727404,1
243.19371,-13.74367574,-4.466579279,-8.762279527,16.90019218,1
294.4871847,0.3112923127,-3.741957232,-18.18881912,18.57235279,1
69.76195833,4.178868787,10.20145238,0.4705523407,11.03421925,1
293.021652,-0.2888860382,0.4485563945,5.363965498,5.390434477,1
31.6,0.935,-0.708,3.62,3.81,1
99.68462758,-5.151335009,-0.01784970386,3.498803692,6.227214327,1
27.88596617,-1.388860775,-4.092009568,4.793633346,6.453866842,1
74.01431546,2.79632125,1.5065509,5.542524261,6.388167448,1
4.8,-1.64,0.349,2.84,3.3,1
243.4948435,-12.8995214,-5.913569856,-12.64023481,19.00377586,1
0.425,-4.2,-4.7,-3.12,7.04,1
188.5682124,-2.230003943,-8.088877335,-9.586972577,12.7402079,1
61.81889833,-1.777148346,0.03659297191,-0.6644080049,1.897638872,1
203.4139958,-5.349943875,1.741382975,-7.398591308,9.29480863,1
28.34407833,7.505409413,-19.1314663,2.918372229,20.75719321,1
87.98067958,-5.848749962,0.1599749963,4.96563855,7.674049409,1
40.47996112,1.604581225,1.995711274,-2.346892853,3.473535729,1
155.2355529,-1.674028021,-2.428242241,-2.998340212,4.205802447,1
257.8790647,19.8605872,-4.97054144,-3.577961544,20.78343126,1
71.94039554,0.3260486751,-7.085956475,-12.60140345,14.46072114,1
96.11872583,0.2824249745,8.756647489,2.397754859,9.083384142,1
193.9484231,-6.029023129,-0.9640661126,1.354815069,6.254124018,1
173.9306529,0.2083956429,-3.386092179,-0.9314965367,3.518058383,1
174.0436732,-0.7795578074,-10.43769158,-5.739543269,11.93714677,1
11.27939429,-1.464218228,-0.5963566473,-4.525615107,4.793826068,1
28.80582633,-1.360248595,9.187268609,1.837572888,9.467462958,1
30.74429633,-0.3017025136,1.030953582,-1.380549835,1.749230557,1
14.26069904,2.452868959,1.883357756,0.4844242752,3.130218754,1
14.62207004,-3.097586465,3.998424296,16.72845129,17.47637037,1
113.0849315,4.379133584,-8.46008899,51.01464575,51.89647384,1
239.509827,1.335366061,-3.074090599,-17.81239058,18.1249688,1
124.7157161,0.203224804,-0.05534681976,-0.3560281903,0.4136661258,1
286.316344,0.5021270129,-1.297433126,-0.4675819552,1.467684278,1
35.6,0.56,4.19,2.23,4.78,1
41.30307017,-0.8203158242,8.140023515,0.7931302913,8.219608053,1
53.6,1.08,-0.982,0.82,1.68,1
43.6,-0.463,-4.49,1.05,4.64,1
51.4,1.54,0.934,-1.58,2.4,1
96.49983983,-0.8375919344,5.330908265,0.4374139769,5.414007218,1
149.8697546,-0.3002915074,9.687879147,-0.5205120476,9.706498346,1
150.2443625,-4.461445423,-15.02646247,3.483686886,16.05724584,1
57.44584433,-0.3977050969,1.640773736,-2.328688717,2.876299521,1
233.1759692,-0.321817776,-0.06381636545,-4.442922029,4.455019121,1
6.61,0.143,0.161,0.415,0.468,1
127.4388016,-1.032976572,-2.135591437,-3.887962791,4.554563212,1
23.3,-0.27,0.985,-0.183,1.04,1
35.68870279,-6.079216213,3.390213589,5.870206904,9.105478957,1
40.6,4.0,1.57,2.53,4.99,1
190.1240567,-2.507537794,-0.04720223308,1.641829743,2.997595494,1
119.8302491,-4.466555013,-8.473787262,-11.46010882,14.93617348,1
39.54643692,-4.471226061,4.303820862,0.6585765767,6.2408701,1
21.34757208,6.559424645,-1.561042272,4.868150847,8.316357215,1
153.074981,-1.224022211,-11.51139124,-18.04271475,21.43711534,1
34.56762371,-4.748652762,18.85540171,3.338065488,19.72862281,1
187.9157627,-0.1993710503,2.013501281,0.8976598692,2.213533254,1
182.3053714,-2.503774819,-5.181454017,-0.7711541891,5.806120293,1
25.09783954,-0.6372677149,-1.589011844,-9.1953097,9.353330384,1
145.3459863,2.9433299,-6.258006526,-2.585547545,7.383149239,1
34.6,1.53,-1.63,1.55,2.72,1
10.35487046,-0.03077930465,6.067520612,4.337851072,7.458733516,1
1.010544292,-20.36424296,-23.17302317,-21.57389155,37.64471,1
28.56795329,-0.5462862088,-0.2488893655,-0.669695642,0.8993702191,1
210.0288643,7.035180423,-7.847722374,11.57867632,15.6571471,1
46.9,-0.372,-0.451,-0.635,0.863,1
163.8108144,0.708515526,-22.82764685,-0.1700050177,22.83927225,1
26.4,-3.23,-11.3,-0.752,11.8,1
3.083707292,1.474010561,1.960972527,-4.839143395,5.425442764,1
43.4,-0.94,3.01,-1.98,3.72,1
48.34153942,-2.879608698,4.794714496,-2.296901498,6.0462542,1
191.2583172,-5.586530406,-6.075752322,-7.319144019,11.03149842,1
20.83563117,-1.597108776,2.305173408,-14.23369814,14.50733413,1
287.8922915,7.395371246,-1.223699883,19.37128167,20.77102575,1
147.2230282,6.138701107,13.34197085,36.87770149,39.6945425,1
222.2247418,28.79197989,4.577155389,29.89283519,41.75535957,1
2.054482417,0.002488574982,-3.452460415,-12.96389925,13.41574347,1
186.5479012,1.05416849,-2.846306466,1.909067671,3.585703707,1
181.7024282,1.450282706,-9.922615035,-8.469636909,13.12617074,1
41.64334992,0.4288529223,-2.332114601,-6.622904942,7.034596165,1
72.25921387,5.71199002,-0.3668288746,-8.093887814,9.913244341,1
53.3,1.33,2.64,-0.323,2.97,1
19.09904754,-2.859168586,-0.8879878436,-5.373638547,6.151370469,1
23.81410033,-1.743401726,1.221236597,14.42359582,14.57981429,1
21.2,2.08,7.65,1.48,8.06,1
64.4,4.25,8.55,1.07,9.61,1
21.4,-2.07,3.32,-4.25,5.78,1
285.2724048,-2.898558939,-9.41885811,-23.25904974,25.26063988,1
195.8554103,-3.128287271,1.152503747,-0.01497296512,3.333867173,1
274.8631244,0.02458549529,-12.39754261,-9.213702117,15.44642269,1
11.40988929,-0.9157358786,-3.920097042,-14.21245988,14.77158586,1
1.639507667,1.258047159,1.408468243,11.734949,11.8859368,1
172.5365409,-0.4469278353,-0.03342794716,-1.611414281,1.67257822,1
46.046153,1.008118962,-4.295869818,-7.245625223,8.483506716,1
54.4,0.0235,0.373,-0.0646,0.379,1
161.4839582,-0.1185206128,5.904005565,1.268348783,6.039870651,1
232.3629072,-2.406445868,-3.876661878,-10.69064447,11.62365555,1
32.10827104,-0.4831687318,0.1640360337,2.957770768,3.001460938,1
294.1659713,12.00577332,-8.807451607,47.05400382,49.35371387,1
289.9299825,11.99129561,-8.595518691,-4.952705678,15.56288552,1
49.72685517,-0.4308831487,-3.759723412,-5.043782494,6.305626239,1
171.2431602,-6.806946055,-3.781645208,10.14319189,12.78748203,1
24.5,0.0823,-0.666,1.4,1.55,1
80.54273642,-4.603860208,-1.824132478,-10.75207883,11.8376597,1
100.6018309,-4.824937877,-5.672660478,1.492795618,7.595231476,1
100.3711559,-2.232048129,8.984007699,7.673396995,12.02395337,1
177.3561097,1.353488921,-8.186762064,-12.47678408,14.98416319,1
118.9368955,21.77582865,-4.776991001,22.94155061,31.98939044,1
42.08463017,0.2036371057,-0.4981862819,-1.495382134,1.589284546,1
274.7527084,-4.397729191,-9.734594307,-20.57557303,23.18310924,1
176.3021518,2.898085607,2.157330215,30.65852808,30.87067083,1
123.7396662,1.984978271,-1.691489853,-0.5945285153,2.674834727,1
13.48776779,-0.5140934128,-2.274065198,-12.11695111,12.33921265,1
287.2297908,-5.026948945,-5.492766795,-21.67823628,22.9213139,1
286.085472,-3.488768701,-4.775778873,-19.78139952,20.64663019,1
295.2902157,9.789654028,-3.656173608,-8.936199694,13.74993078,1
23.7,-1.31,-1.11,-2.11,2.72,1
288.7153985,8.218673244,-3.699470486,40.2984162,41.29400707,1
9.91,-1.25,-1.15,-1.86,2.52,1
64.28158046,14.49625683,-10.72328714,30.62604796,35.53990944,1
283.927328,-1.258734499,-3.808551463,-16.90940156,17.37864603,1
61.6,-1.17,-0.527,1.47,1.95,1
51.1,1.13,-0.217,0.844,1.43,1
206.1844104,-0.08838870451,-4.532120427,29.21436638,29.56394986,1
163.1087461,8.860371248,-17.36104518,1.656257747,19.56157606,1
272.9860423,-6.451715425,-5.464996614,-25.36259961,26.73485139,1
202.8016943,-0.8498518646,0.5538567451,-16.87470535,16.90516744,1
8.59,-2.71,3.35,-0.85,4.4,1
125.1201012,1.441174352,-1.990070904,-0.3400588596,2.480525295,1
145.8177563,-5.147702719,6.791470814,2.579395105,8.903718223,1
58.82102329,2.264673985,0.03149058189,-4.616802435,5.142431782,1
16.96093979,0.3496838882,-3.243314867,-10.42249116,10.92106644,1
92.60847371,2.344166297,9.782421607,2.704444536,10.41656894,1
148.6584134,-0.09959650129,-3.12420036,-3.983052551,5.063126996,1
252.9906348,-13.71269134,6.772939818,1.050585608,15.33017768,1
43.6,2.02,5.61,5.16,7.88,1
42.5,2.62,8.61,0.533,9.02,1
85.83872946,-3.569277844,-1.334869632,-4.12168945,5.613371997,1
28.0,5.09,4.13,4.68,8.06,1
109.387552,0.3424949558,7.786317254,0.4465658927,7.806629252,1
131.8768012,0.03634468451,0.0462403661,-0.2773246676,0.2834926433,1
2.164899417,-7.082380317,-8.10641372,-21.99269252,24.48576278,1
37.2,0.971,2.83,-0.452,3.03,1
22.7,0.329,-0.156,0.478,0.6,1
121.2756737,-4.91636114,-12.22448257,-14.85507356,19.8565302,1
56.84357542,0.8176119255,2.851957507,12.3901108,12.74036878,1
64.54681446,-3.080110015,-4.311023462,-3.001824276,6.089577159,1
10.69586458,-0.3142305386,2.008818831,-0.942899192,2.241239125,1
146.6609192,-1.272330006,-16.43040584,-10.61921605,19.60471396,1
63.3,-0.0748,-0.0357,0.582,0.588,1
35.34770942,-0.9206871546,-3.641238357,-6.139504514,7.197207604,1
40.0,-0.388,-0.22,0.509,0.677,1
25.5,-4.99,10.3,-5.17,12.5,1
88.32196108,4.020941339,0.546361382,2.843788655,4.955160333,1
65.48611483,8.797634132,-8.632965429,34.99438115,37.10165995,1
151.9407266,6.471179636,-1.597466771,51.27553448,51.70694829,1
239.369298,-1.165627238,-2.85405198,-12.99549058,13.35616244,1
248.1925485,16.85362497,-11.7288562,12.66402947,24.12443543,1
18.07516517,-0.09564202935,0.6295611577,7.466766919,7.49387102,1
8.06,0.132,0.982,-0.858,1.31,1
131.0944977,-0.4446936873,7.668839675,0.55673913,7.70187074,1
23.4,-0.212,-2.33,-2.32,3.3,1
8.94,-0.19,2.73,-0.965,2.9,1
157.1712542,-1.404673108,0.009502894878,1.058431476,1.75882746,1
32.3,-0.767,-26.3,3.32,26.5,1
18.8,0.0396,-0.0788,0.419,0.428,1
112.9845545,0.5594308957,-5.719519479,-2.34747699,6.207778525,1
80.72341542,1.547304093,-1.38756971,6.980720041,7.283539795,1
34.7,5.02,-1.16,-0.575,5.19,1
53.2,-0.635,0.0488,-0.321,0.714,1
34.26455367,-0.04274205007,-0.1290822557,-0.002475711107,0.1359972085,1
36.11346767,-2.031032403,12.51949916,-1.42728663,12.76323231,1
98.01837167,-0.219269783,1.307411985,-1.766150318,2.20832341,1
45.7,1.08,6.35,2.06,6.76,1
47.1,3.44,1.78,4.41,5.86,1
248.0520185,-14.14418545,-2.302277429,-0.782456857,14.35167942,1
85.29057592,0.4881277554,-3.360546278,0.2816995543,3.407476285,1
178.98557,-2.594414263,2.719164024,-0.8983586115,3.864179933,1
41.1,-1.32,0.875,3.48,3.82,1
103.871397,2.703273631,10.16026693,2.779863385,10.87503346,1
11.1,2.91,11.0,-5.12,12.5,1
285.0415328,15.94550677,-3.934015462,16.82682017,23.51334814,1
254.335704,2.138730807,7.761646682,17.52224823,19.28332212,1
106.458973,-1.608430739,-12.27216311,-4.218874851,13.07638871,1
132.558808,-1.885914451,0.6213368297,-1.136992692,2.288118256,1
7.91,-1.38,0.821,0.453,1.67,1
263.5203375,-2.235732021,-2.178994588,-0.2907358414,3.135449316,1
118.2836428,-3.135605354,2.746799719,4.369992632,6.039351392,1
226.2097405,-2.692175615,0.8990174465,-13.68243434,13.97372718,1
172.7772509,-0.5649351722,0.3768255669,-0.3242655301,0.7525273355,1
278.9385013,4.899018298,10.74690989,12.03000535,16.85875088,1
41.12238817,4.657133313,-1.968623024,-1.695225347,5.332743785,1
32.4,-3.76,-0.864,0.429,3.88,1
8.23,-0.0532,-1.45,0.282,1.48,1
107.9834375,3.920932317,12.02676131,-7.688913167,14.80324571,1
171.5335831,5.168980737,10.61244147,0.3490086079,11.80949122,1
114.3496785,0.08627522841,-10.30813483,-9.358709557,13.92302164,1
52.0,-1.95,-5.26,-0.659,5.65,1
218.6211829,3.713569877,3.111910974,12.76559093,13.6541167,1
188.8547158,5.692572001,9.433955621,2.50445485,11.29943312,1
165.9571399,2.999152683,0.4447661197,0.04904308274,3.03234875,1
39.64021171,0.3094877158,-0.3093846586,0.7137807244,0.8372481327,1
46.7,0.677,0.054,-0.149,0.696,1
2.381665667,1.240437246,3.002701943,3.323498905,4.647639023,1
61.3,2.46,-0.823,-0.545,2.65,1
24.5,0.989,1.46,3.16,3.62,1
31.9,0.203,0.21,2.05,2.07,1
9.36,0.101,12.8,12.2,17.7,1
271.0989231,13.71012558,4.213993303,24.94937688,28.77840666,1
133.7926422,0.9638268884,-8.259627727,-1.687265532,8.485120944,1
9.98,0.0376,-0.51,-2.55,2.6,1
87.71969958,-3.83804745,2.995677098,-4.238407475,6.455136515,1
154.841609,8.579396748,0.1424246882,18.47967834,20.37461276,1
86.37464729,-0.1577806824,-0.08437444478,-13.44162612,13.44281691,1
60.28044625,-0.09511486631,-0.2081401196,-0.04819158196,0.2338623008,1
52.95894117,4.629934697,-3.652838064,-5.439124439,8.022692558,1
119.1476865,3.352425665,-11.77922997,-11.87467757,17.05863371,1
260.007088,-3.158792195,4.894436128,-2.363341071,6.286402323,1
228.6689986,-3.899285632,0.3102740201,-6.688392588,7.748244564,1
276.5093365,0.2621593291,-1.497314054,-0.7484512049,1.694360084,1
12.9,-1.02,-6.92,1.64,7.18,1
105.155155,4.749412023,10.03144575,-6.326155824,12.77525209,1
58.16138,1.074539604,-0.8754249546,-4.098371923,4.326390716,1
43.2,1.01,0.133,4.44,4.56,1
109.076641,-12.51051199,-38.64925814,-3.022446821,40.73589633,1
26.97330629,-3.246387871,-4.671183879,-13.5969422,14.73892229,1
121.9983867,4.350712608,-4.693243962,-2.113002473,6.739437553,1
295.7921101,6.557715504,-3.643028775,31.5691828,32.44824485,1
9.462271208,-1.065148976,1.432650281,7.25634083,7.472717806,1
4.81,-1.88,0.378,1.23,2.27,1
302.3468589,-1.758969353,-3.408541979,-14.95917505,15.44309068,1
80.52324846,1.508312666,3.14096462,2.569485244,4.329309444,1
2.9,1.16,-1.76,-0.431,2.15,1
173.1182569,0.7191373587,5.734933324,0.7072825675,5.822960365,1
278.5871753,-10.46500978,5.570132475,47.76459489,49.21381239,1
257.4373997,-13.27800465,-0.6298179236,-3.736687721,13.80814663,1
204.8493913,7.109231901,-13.34461496,43.66506522,46.20885031,1
109.1200478,2.786782395,-6.288000988,-13.61309455,15.25193285,1
30.1,0.272,-2.02,1.64,2.61,1
128.597146,1.614491671,7.112430328,-1.788605381,7.509484519,1
14.3,2.8,7.13,-0.377,7.66,1
58.5,4.78,0.189,0.303,4.79,1
96.60013283,-1.058726687,0.2143536633,-1.49105037,1.841217232,1
156.4090091,0.8850537839,3.940650297,-0.1048965637,4.040179236,1
0.9274370417,0.9948041944,0.8757354417,14.65329082,14.71310572,1
153.1895279,0.02105933189,-0.2784321302,1.145626252,1.17916388,1
57.7,0.617,-0.73,-5.18,5.27,1
275.6561168,-5.172767394,-7.090482219,-13.75774531,16.31894655,1
205.5219194,1.155390079,-3.85582474,-14.05073291,14.61592987,1
55.7,2.07,0.819,-1.15,2.5,1
159.8090234,-2.963964139,5.642400552,-1.135134154,6.473816259,1
195.7350543,0.06131478041,-0.05168821692,0.7192282829,0.7236853577,1
62.0,-0.23,0.405,1.41,1.48,1
45.1,-0.243,5.0,-1.98,5.38,1
15.3,-0.806,-0.389,0.256,0.931,1
214.6964174,6.555460818,-6.373667375,-13.080398,15.95915142,1
63.9,-0.186,0.971,0.0723,0.992,1
44.9,-0.387,0.162,0.709,0.824,1
28.53480033,-2.916323365,27.50640171,4.759965663,28.06714004,1
293.6941903,2.370597758,-4.618298153,-12.84300923,13.85248345,1
205.4817684,0.9916711101,-2.722819703,-10.27162364,10.6725541,1
200.1818472,5.617577952,-7.776985098,-6.768123466,11.74079105,1
60.54120525,0.2835147493,-0.2580478594,0.01310010195,0.3835895247,1
239.0280125,-5.721718617,-0.4999628122,-21.54426955,22.29671674,1
22.4,0.629,-0.0893,-0.328,0.715,1
298.883782,-3.260713842,-4.50125853,-13.03418395,14.16981066,1
3.299182292,-4.988835624,-14.35727436,-7.44321375,16.92398413,1
171.2427251,1.66681241,10.31504039,-0.0370924703,10.44890892,1
178.6710465,1.564899973,-7.460922627,-8.727472807,11.58805678,1
121.1119471,2.072590465,9.691659372,2.763096202,10.28876053,1
155.6145097,-5.191384928,-8.837447823,-15.58588196,18.65397218,1
122.8214744,23.98680824,9.932659382,43.99132582,51.08093029,1
297.8599173,1.131303351,0.6920356603,11.68676677,11.7617719,1
61.62834533,0.0497367087,0.3403246155,-0.4357877201,0.5551626078,1
159.3777534,0.7752157382,3.002303163,-1.478794752,3.435348256,1
45.5146065,-3.733643953,-5.233249823,-8.269928766,10.47467053,1
238.1045333,-2.793727133,2.008007969,-1.769643445,3.868933344,1
63.9,0.228,0.337,-0.519,0.66,1
18.8,-0.153,-0.148,0.317,0.382,1
85.38091492,-4.966380562,-6.343170637,15.34051876,17.3272117,1
141.7358159,-0.6562676574,-6.962390774,2.476978199,7.418961756,1
92.76894271,3.442206738,7.849608101,-31.5357414,32.67978152,1
256.9355068,-0.4244242412,-8.68779594,-3.666797706,9.439456534,1
63.16738646,4.734071268,0.8527655321,-3.7318281,6.088118001,1
16.6,-0.754,-4.47,-2.4,5.13,1
