Time (s),Linear Acceleration x (m/s^2),Linear Acceleration y (m/s^2),Linear Acceleration z (m/s^2),Absolute acceleration (m/s^2),label
163.9156598,0.1670829447,-7.961828449,-12.05221775,14.44557308,1
2.034406417,0.5241009955,-1.566467319,-11.54417891,11.66175666,1
57.2,-0.0406,0.401,0.908,0.994,1
7.173837333,-19.4714012,-11.1622154,-3.650101567,22.73881612,1
151.2538303,4.181367887,0.9813972598,-0.4731087434,4.320973255,1
21.5,3.23,-4.84,3.91,7.01,1
257.3771727,-12.04731077,-0.9693978962,-6.148010459,13.56006865,1
27.50088658,-4.17768034,12.15144032,2.345082117,13.06177343,1
145.125158,-16.21058328,2.864503001,50.54593294,53.15900417,1
149.3983666,3.421043618,10.99260287,-1.667666835,11.63279717,1
100.4012439,-3.535201148,8.311661514,5.684727377,10.67227668,1
63.6,-0.143,-0.157,1.28,1.3,1
87.64943558,-1.420852938,0.9103354633,1.684785143,2.384540775,1
188.3172704,-3.901755788,0.5104230425,3.305988833,5.139434996,1
215.3287962,-0.8699589774,-11.04486061,-19.10865164,22.08814935,1
32.4,0.275,0.893,0.932,1.32,1
119.2564992,2.539291391,9.959478221,4.2652728,11.12797193,1
2.656755833,-25.70153931,-8.855891696,-0.911581578,27.19975959,1
289.9099065,1.90875046,-6.814063286,-16.11813763,17.60310051,1
259.916748,-1.3755262,0.47148848,-9.165459664,9.28008753,1
190.0081247,0.2550628558,0.1671508455,-0.8527906752,0.90567566,1
20.57465392,1.007303203,-1.171224777,-4.166458656,4.443625204,1
1.138049042,1.795334064,-1.384205807,-2.823423972,3.620907765,1
80.02178946,1.623122746,1.138782086,4.688754762,5.090753707,1
124.6956571,-0.105293005,-0.2103132373,-0.2761663342,0.3627480101,1
39.3,0.217,0.369,1.74,1.79,1
28.40430633,-1.34976249,-1.661621983,0.1837217816,2.148627489,1
41.6,-0.713,0.438,1.11,1.39,1
3.95,3.43,-4.61,-10.2,11.7,1
85.01633346,-0.1147477699,6.359943375,-1.969351587,6.658858195,1
106.5102512,22.91352374,-16.12245287,58.82099673,65.15268769,1
149.9733465,-2.412096325,-17.10075403,-8.470498788,19.23547106,1
7.797423917,-5.870292274,-3.941444349,-5.219812921,8.788729252,1
188.1165167,-5.287144779,-7.151711923,-18.76658835,20.76741972,1
18.4,-0.275,9.8,1.12,9.87,1
162.2092553,-6.796759036,-14.20945909,-3.583799404,16.15389362,1
17.5,-4.15,3.91,3.01,6.45,1
214.9674364,-15.70493712,4.448028695,-6.855932858,17.70406237,1
211.7352805,-0.01413301259,1.252862433,5.965560958,6.095718298,1
6.04,2.39,1.38,0.856,2.89,1
253.602942,-5.146070176,7.255924509,-2.670231015,9.287659146,1
20.7,2.0,-0.0907,-1.59,2.56,1
68.13608596,-3.784577587,2.326213883,-8.652722002,9.726453443,1
213.4718128,-13.69610045,1.080492289,-9.130544186,16.4959834,1
18.04505117,4.856036001,1.82933957,15.09231849,15.95950019,1
52.1,0.402,0.267,-2.95,2.99,1
305.8802039,-3.825191177,-3.115304698,23.90142953,24.40523601,1
134.3139752,-0.6736996691,-5.663361651,-1.300219032,5.849624429,1
0.252,1.43,-1.07,-1.46,2.31,1
53.9,0.206,9.14,0.16,9.14,1
5.246543667,28.88027987,4.966580536,36.69957659,46.96377763,1
42.9,1.95,-0.18,0.38,2.0,1
53.8,-1.43,6.61,-1.11,6.85,1
18.12752167,-0.05568910114,-1.00742731,-1.823430812,2.083965208,1
28.77571233,2.473626867,3.808072869,-0.8352138718,4.617123678,1
75.87973933,2.682709558,-0.8046704292,0.607788831,2.865978425,1
33.38198221,-0.04231359534,-1.164631749,0.848861931,1.441778114,1
50.5,-1.63,-6.07,-0.8,6.34,1
239.399411,-1.854671024,-3.392055169,-16.97629722,17.41093076,1
37.9,-4.1,5.97,0.434,7.25,1
134.6960327,-9.217346102,15.2038132,11.58492231,21.22088193,1
0.743,7.75,-0.361,-12.7,14.9,1
241.1259168,-5.982876318,-2.706420017,-29.21470786,29.94359153,1
157.4019332,-5.319683365,6.574381238,-1.442774296,8.579225923,1
207.7603347,-2.648489021,-2.709568451,-16.3531267,16.78633397,1
48.92452554,-0.495313691,-2.451535794,1.084017064,2.725886351,1
36.12350467,-2.808567074,15.02674547,-0.6923873703,15.30263143,1
54.7,-0.587,0.734,0.12,0.948,1
152.8384949,2.731326525,7.340684577,0.7255500732,7.865889496,1
17.5,-0.749,-1.73,-1.82,2.62,1
87.24282208,-4.783291083,7.21273522,-12.03720912,14.82558013,1
45.5,1.13,-0.572,-0.21,1.28,1
300.2690131,-2.547807569,-6.148753055,-16.43738976,17.73376073,1
271.2896421,-11.64429377,-5.190407274,-18.92990225,22.82260074,1
55.3,-0.26,0.229,-1.38,1.43,1
143.2001256,-2.462878223,1.867597756,0.6320853277,3.154872799,1
297.0869999,1.134803933,-0.5805747199,5.778613195,5.917534742,1
53.1,0.886,1.4,1.87,2.5,1
294.7180567,0.1926276392,-1.906295214,-7.985343027,8.211989412,1
136.9918556,-1.362831164,-10.43785531,2.496516085,10.81844373,1
6.34,-2.07,-1.01,-5.42,5.89,1
44.99309087,0.05684469368,0.9033761072,2.146559059,2.329599859,1
82.57923458,-1.289539678,0.9418273973,0.07313697338,1.598530714,1
18.69918767,0.1605535783,1.725187064,3.435581258,3.847761224,1
159.4880784,0.8760411049,-0.267008425,-1.44064167,1.707099862,1
53.2,-0.124,0.702,0.102,0.72,1
206.7866749,-0.9150817213,-1.358183797,-11.12896813,11.2488208,1
68.77850221,8.698233805,-16.57585065,21.03904206,28.16131011,1
53.227031,-0.3062912075,0.4814892653,4.063409666,4.103284579,1
165.1547749,1.105599868,9.656017669,1.68263673,9.863685653,1
48.12070658,-12.49680261,-8.694279333,-23.29562993,27.82888683,1
65.86754983,23.8653452,-14.75981657,25.36901517,37.82847892,1
65.9,0.24,-0.194,-0.189,0.362,1
5.73,0.73,2.43,5.64,6.18,1
196.6184552,1.351481572,0.4126777697,-3.340883262,3.627437987,1
9.2,-4.19,-8.66,1.11,9.68,1
118.7461805,-2.072883557,-9.716697734,-14.26086781,17.38054694,1
270.3761961,-4.570452141,-11.06642163,-9.619816972,15.35889316,1
55.16726183,1.633512371,3.328964882,3.942973396,5.412708107,1
57.2,-1.16,-2.01,-1.42,2.72,1
47.6,-0.364,0.122,-1.06,1.13,1
43.52883125,-0.910956803,-0.5748193055,-2.936464684,3.127792252,1
33.73447308,-5.320672714,8.235503869,2.153033535,10.03835821,1
170.9018792,-1.309994992,-6.850194401,-9.455268722,11.74918537,1
157.1411652,-2.208305949,-0.5175803268,0.6084612608,2.348346155,1
200.7238847,-4.792184406,-12.25398879,-15.78392248,20.54890463,1
52.35449725,4.541133617,4.458211621,-4.022180949,7.528312226,1
31.70680396,0.8862703702,-9.915200765,1.169244325,10.02316386,1
30.5,0.737,3.03,1.33,3.39,1
230.6966334,50.747152,12.34468379,49.44432687,71.91944183,1
15.91698071,0.321230679,0.4410227323,10.31113445,10.32555973,1
13.1,2.79,4.68,-3.46,6.46,1
53.7,-0.341,8.86,1.65,9.02,1
260.9205334,-3.725591752,2.192850881,-0.0905447191,4.323982798,1
6.62,-0.735,-0.213,0.131,0.777,1
104.8643041,-14.27753822,-37.86128736,5.051650507,40.77798856,1
233.3968012,-0.6938874735,1.676249232,-9.714460005,9.882409852,1
7.595434167,-15.24220134,-12.32724973,-7.352107113,20.93655336,1
21.37699292,-0.5972882549,-3.066219954,-0.8110485721,3.227422788,1
66.21164733,1.201669913,8.83900786,2.713343121,9.323856575,1
171.2933495,-7.831853031,-9.606659567,10.41003191,16.18624708,1
110.977019,0.7334188905,-9.843244929,-16.21553587,18.98343956,1
161.0928056,0.4627073142,9.582224638,0.2629317828,9.596992247,1
252.9504828,-8.865734314,9.655951595,4.509986084,13.86285038,1
52.8,3.01,5.56,11.9,13.5,1
289.1369895,11.74399347,-8.019117129,44.20144668,46.43269873,1
94.87657504,-2.510962509,-0.5645801,1.366811802,2.914079256,1
30.2,6.02,3.85,5.69,9.14,1
231.8509789,2.469523291,-7.31040594,-10.66500677,13.16369818,1
34.4,-0.678,0.0492,-2.69,2.78,1
175.8663651,1.30702139,0.9754652596,0.1293813407,1.636024731,1
35.82911179,2.5844126,1.189032472,-4.099896292,4.990204035,1
136.9316786,0.1679505619,-9.273833714,0.6223505907,9.296209948,1
42.79871692,2.399740866,-3.747464139,-3.857500552,5.889189605,1
8.51,-1.35,-2.42,0.234,2.78,1
114.683078,4.834046377,-8.370923629,-1.775269636,9.828120322,1
229.8032692,-1.784063264,-15.26485111,-12.21283609,19.63038274,1
81.86771517,18.79525959,-6.944333403,34.01528828,39.47816341,1
156.9405741,-0.3770813826,1.314309652,-0.2961719247,1.399041829,1
48.8,0.761,0.505,-0.6,1.09,1
150.4715259,-3.185559287,1.333379762,-0.8855970633,3.565104727,1
51.29140367,-0.1082714304,-3.361157312,-1.742270874,3.787427753,1
277.9447513,0.0861441046,1.776872358,1.899387898,2.602377868,1
150.1640615,5.753635059,-1.274210617,0.8570749301,5.95504043,1
62.761633,0.6015267554,0.002503193021,1.972396817,2.062083875,1
54.1,-1.46,-0.856,-0.285,1.71,1
32.60973221,-0.1709295721,-1.670892013,-6.956680968,7.156570906,1
241.4471272,-6.906493732,13.92644917,2.551756486,15.753003,1
224.6940349,-2.01253766,-11.05020847,-16.25998874,19.76220253,1
93.87216433,-3.26808952,7.687878209,0.1342580648,8.354753479,1
71.09722467,-1.262780918,-4.212093251,-19.45398936,19.94477494,1
48.59356354,-4.566278983,5.488642754,10.16097795,12.41859799,1
165.8930803,1.259406344,-0.9049319051,-1.71163965,2.309700497,1
23.1,-0.228,1.38,1.55,2.09,1
25.01760554,-0.1348290454,-1.886249497,-10.26133254,10.43412965,1
17.72383317,0.6458613677,-1.356817448,-7.032557947,7.191311547,1
17.22489042,-2.151624794,-3.622573753,-8.391835611,9.390177569,1
89.61682417,1.150058734,-4.608906063,-7.500827535,8.878460671,1
18.39638354,-2.314280447,0.3878730038,10.18280911,10.44968616,1
204.3575423,1.582595694,-9.814628656,26.10826695,27.93694951,1
157.1612242,-1.736507128,-0.3400395638,0.8050749835,1.944024084,1
31.9,0.982,0.54,0.0738,1.12,1
140.3015951,-29.82845968,-99.73918505,18.35938942,105.7104972,1
87.48352308,0.9169950765,9.351502864,1.636712844,9.537835956,1
50.3,-2.01,-4.14,0.186,4.61,1
142.8791802,-1.79401961,7.532031786,0.4654581003,7.756717117,1
37.0,-0.313,-0.394,-0.99,1.11,1
44.8,-1.0,0.392,-0.559,1.21,1
245.7935072,-13.2657676,-1.490855658,-16.21550897,21.00347523,1
202.5808633,10.5456499,-1.741786433,28.10169971,30.06576256,1
304.2540612,2.524163183,4.185039646,28.48809074,28.90427772,1
1.21,10.3,1.31,-1.37,10.5,1
8.709653667,-6.00354681,1.78669378,-7.573380956,9.828069397,1
31.5,-1.04,-6.68,0.641,6.79,1
153.5606209,-1.096827729,-0.2204768676,-0.5190823303,1.233323794,1
56.28592537,5.078394502,-2.554578352,-0.3468445534,5.695284227,1
9.532773458,1.044832825,1.157128017,-3.913188264,4.212322788,1
18.00717067,-0.203938347,0.2606685814,-1.934217423,1.962329227,1
189.0399844,-2.214700756,-7.876987104,-5.140109525,9.662947335,1
126.0536047,3.895961782,2.635466394,35.17313989,35.48625045,1
235.8861763,-0.1182787938,0.6282257268,-2.405052769,2.488561082,1
291.5661578,-1.213028349,-4.283595343,-11.5799896,12.4063204,1
185.78565,0.2463576673,11.01293715,-1.838175151,11.1680063,1
161.2857893,-3.153313939,-11.59551162,-15.28848906,19.44574957,1
273.8292234,1.439183082,-0.7896607728,-8.002805736,8.169437663,1
16.4,1.01,0.959,-0.629,1.53,1
115.855329,-1.851306682,-1.467539593,16.24435563,16.41523983,1
81.36570108,-4.442678492,-5.550141429,1.974009479,7.378223058,1
162.7312142,14.20573909,-12.71238477,7.902433017,20.63628352,1
38.0,0.0914,2.05,-3.15,3.76,1
41.85515517,-1.196774771,7.690528752,1.423153818,7.912134297,1
16.9,-2.63,-11.3,-1.41,11.6,1
65.93083233,-0.2940288471,9.585215489,0.2690528309,9.593497712,1
109.808787,3.4048901,-5.602654688,-12.75337142,14.33985699,1
161.9352882,1.484407787,-3.30356984,-1.183845992,3.810319081,1
182.3749539,-1.545440293,-8.08424634,-5.409564425,9.849203615,1
0.07702591666,0.5683069691,-0.3212173766,0.8257128042,1.052594437,1
60.56126325,0.2991609848,-0.1017319044,0.0348903358,0.3179056633,1
115.1945781,1.915277999,7.612172554,-2.978788293,8.395632227,1
165.110141,2.211074751,-2.80716959,-5.798848069,6.811438291,1
211.1330158,-5.920076637,-1.34227747,-12.25060326,13.67209919,1
265.7989308,-2.439476789,-1.602840216,-15.75687326,16.02495549,1
129.3794495,-0.7607397133,5.522174782,8.767967699,10.38991804,1
39.3,0.904,-1.46,-2.25,2.83,1
0.903,-2.86,4.18,8.57,9.96,1
27.7,-0.808,0.417,0.494,1.04,1
112.8440265,0.5901825723,-13.35647195,-30.80631294,33.58232534,1
12.82205854,0.9101294951,2.279737874,-3.113599066,3.964850516,1
71.46862154,-3.476730161,-2.884444345,-11.25167546,12.1246803,1
3.540092292,57.86716617,-3.248704246,-1.085137683,57.96844421,1
255.7911922,16.81190509,8.188746024,32.43897951,37.44306486,1
111.8101464,3.195265957,-13.46336607,-15.22962982,20.57701569,1
85.08653746,-3.226371683,10.53907178,-6.269225578,12.6800906,1
68.75842621,21.27574904,-23.85003017,7.336430728,32.79183819,1
20.5,-0.481,1.13,0.245,1.26,1
57.3,5.13,-20.9,-2.99,21.7,1
65.2,-0.196,0.39,-0.725,0.846,1
45.6,-3.48,-2.61,2.16,4.86,1
173.1483459,0.877992467,7.075913882,0.6762446697,7.162173894,1
50.3,-1.25,2.44,0.871,2.88,1
20.9,0.408,0.213,-0.0795,0.467,1
57.8,0.518,0.397,0.0627,0.656,1
33.76458708,-3.529212722,3.825093529,0.480533684,5.226623725,1
123.2381932,-1.718508375,1.507064286,3.750783604,4.392367407,1
178.8115745,-5.850719304,10.93039552,17.01737157,21.05458139,1
115.6158141,-1.247092693,1.985098139,2.457008203,3.395989416,1
32.45965258,-1.286325755,5.2013556,2.22632619,5.802177379,1
240.7545168,-10.03828465,1.018399683,-8.697637389,13.32115584,1
37.0,1.56,-1.72,0.965,2.51,1
26.7,-0.273,-3.83,-2.25,4.46,1
16.43258033,-0.9469390333,0.362078889,1.475957099,1.790598786,1
54.66120204,0.5909402253,-1.676585885,-4.185144603,4.547041448,1
240.5637988,-2.908140187,-10.53334151,-6.850098506,12.89699237,1
27.5,0.445,2.23,3.26,3.98,1
9.25,-0.905,0.268,-2.54,2.71,1
182.1842372,0.3340786198,-10.19930996,-6.101115205,11.88953905,1
42.06457117,0.7123629939,0.8197673553,-1.948457732,2.230687581,1
129.6972759,-5.292634145,12.23259266,23.14781933,26.7108562,1
127.3334252,-0.6921615947,-2.527866517,-7.667352144,8.102930685,1
39.74783087,0.1044118296,-0.1100349507,-0.203390134,0.2537263627,1
4.4,-0.25,0.609,0.0417,0.66,1
215.2083434,-0.6012628998,-10.24789213,-10.31012639,14.54921016,1
58.6,-2.63,-6.71,-6.43,9.66,1
12.5,-0.109,-6.47,-10.2,12.1,1
27.8,-0.266,0.733,-0.322,0.844,1
164.969614,-0.2954125907,-3.13910462,30.81119654,30.97210162,1
2.64,-1.97,-4.51,-2.82,5.67,1
14.8,-1.51,-7.84,-1.82,8.19,1
86.25995687,-1.990128645,4.137285728,4.350687464,6.32504756,1
130.2192339,-5.090194184,4.788963175,16.16207361,17.60843174,1
21.3,1.1,2.19,-1.06,2.67,1
99.84523058,1.975301129,1.676818166,0.7293927902,2.691755478,1
57.9,-2.62,12.9,8.21,15.5,1
272.4339603,-0.389845562,-7.253553463,-14.03064188,15.79952306,1
148.4978104,3.107264777,0.01184265822,-6.418896757,7.131442366,1
140.2414181,1.167332578,9.185149578,1.293911641,9.349002378,1
219.3940903,2.021692646,-7.857335197,-11.78562097,14.30824305,1
170.0888275,3.52639875,-18.68329827,-17.90249033,26.11513512,1
234.3202792,-1.259394942,0.6203175869,-7.37574916,7.508165235,1
31.94771596,-3.68046645,1.377764221,-0.1688920002,3.933521584,1
201.1253937,-4.407494334,-12.2759369,-14.64174491,19.60880739,1
94.76477037,0.9254451071,0.4591876924,-0.885809902,1.360867799,1
87.04717329,-0.6123131141,-2.834320551,-7.090894448,7.660880133,1
19.6,-5.37,-1.13,1.88,5.8,1
84.39721971,6.01814263,4.867927483,-7.53640141,10.80333767,1
33.5,3.47,0.346,-3.13,4.68,1
175.5052991,0.524076291,-0.9673154104,0.9722469521,1.46820271,1
153.9181443,5.732701442,-1.667722383,2.06681941,6.317982767,1
156.0260537,-1.371888793,-14.76358335,-10.61097616,18.23289026,1
262.7674979,-2.320127662,0.6850160779,-6.264818532,6.715667549,1
10.90798646,0.3489072318,-5.702961334,-11.6833941,13.00566038,1
31.1,-0.765,-0.711,-0.212,1.07,1
62.7,0.163,0.379,-0.0327,0.414,1
8.940528667,-33.63196353,-2.626052377,-1.638184442,33.7740843,1
148.2951206,-0.8718831499,4.752713946,1.878690509,5.184394671,1
275.6661548,-5.045905618,-7.26705176,-13.72881212,16.33252849,1
72.37201967,-1.98756581,-1.746796619,-15.99557297,16.21295997,1
235.1132659,-3.179746862,-0.331908718,-2.668137712,4.164122039,1
3.93,1.21,-0.391,0.98,1.6,1
58.9,0.326,0.486,2.14,2.22,1
102.015967,-0.5364320424,-13.99970075,3.497238685,14.43987739,1
159.6485514,0.3458765103,3.007425324,0.1921131939,3.033338939,1
52.3,-0.048,0.0762,0.19,0.21,1
28.9,1.53,-0.00386,1.09,1.87,1
249.4573159,21.27680154,-5.210404751,28.27013227,35.76382222,1
101.7222763,8.272984521,-8.610237302,-0.122106235,11.94124655,1
31.74695596,0.04942563683,-0.02955592096,0.3138095391,0.3190499535,1
175.3385351,-2.390602837,-9.39830924,-1.557018803,9.821787315,1
228.0165431,-16.03464407,-18.99816616,-20.59186337,32.28103104,1
19.6,4.31,10.0,-3.24,11.4,1
277.6135013,4.185346332,-2.552934407,18.06862727,18.72190934,1
8.21,5.16,9.21,-2.35,10.8,1
123.44381,3.598604262,-11.71603326,-9.071786685,15.24836718,1
9.121278208,-0.3210986781,-0.1623169523,-4.784098876,4.797609114,1
235.0931909,-2.306165681,0.01997628137,-2.961696004,3.753723807,1
44.4,3.08,-7.32,5.32,9.56,1
231.8409419,4.328817416,-7.19909542,-6.646949278,10.71202921,1
165.9633433,0.9822677641,-1.117455975,-3.217083088,3.544457845,1
263.2292399,-1.131073701,1.137990665,5.064017953,5.312120886,1
169.2468391,2.299398552,4.038356686,1.542928183,4.896548356,1
97.72727867,1.296238832,-1.058557118,-1.623199344,2.331427544,1
36.0,0.473,3.29,8.31,8.95,1
15.2,-0.917,-0.0689,-1.9,2.11,1
0.746,-2.9,-2.34,-7.8,8.64,1
12.8,1.37,-0.648,-1.85,2.39,1
254.6870294,24.09739078,-6.121174078,28.39987731,37.74527845,1
143.9005642,2.986591402,-12.6213483,-16.30611626,20.8352487,1
48.0,-0.471,-1.97,-0.552,2.1,1
19.87197858,1.525541634,1.027600204,-3.971189135,4.376480618,1
98.20482175,3.204734646,9.503248635,1.909860992,10.20929125,1
190.4151502,-4.594931217,-0.9317391962,0.5785802346,4.724011633,1
84.94929371,-5.241661627,-6.417512137,11.86379474,14.47097454,1
53.206972,-0.3653346187,0.1193679839,1.841776451,1.881451194,1
108.4475228,5.5090624,-9.596442143,-7.535685126,13.38760698,1
149.7293416,-1.853398377,-20.33739021,-1.786824903,20.49968949,1
62.94655554,0.1917423342,0.4078234112,-9.057059888,9.06826438,1
40.13867392,-1.813740222,-13.41551713,0.5311867976,13.54798557,1
80.70334042,6.407555498,-1.713817446,16.78369578,18.04678314,1
10.62692046,-5.746497363,-0.498478058,-10.34073656,11.84067333,1
30.8,0.671,-3.57,4.02,5.42,1
53.0,0.168,0.142,-0.191,0.291,1
10.5,4.14,5.38,0.795,6.83,1
276.5996775,2.354114165,-1.695679675,5.963336678,6.63163384,1
156.0360917,-2.550865078,-15.00977217,-10.97994131,18.77123556,1
209.2358825,4.629133336,-4.372455479,31.67197685,32.30574809,1
178.8216115,-5.135538172,10.44447786,12.72101292,17.2419558,1
22.09909817,5.868731067,-0.6880917133,24.96719218,25.65689302,1
97.12165708,-1.218616241,-16.40316133,-0.2773053718,16.45070288,1
89.509431,-0.7150771983,8.869733809,0.5040557535,8.912776529,1
30.65281767,-2.276945536,4.981337155,0.2012588239,5.480757788,1
30.55243767,-3.758306631,11.82767064,3.835078819,12.98947616,1
31.2,-1.39,-0.863,-2.22,2.76,1
40.3,3.0,0.339,-0.123,3.02,1
10.2,0.247,0.428,-0.688,0.847,1
164.2822036,0.4371718291,10.69623207,-0.8153556311,10.73616806,1
52.01350367,0.763955755,-6.073863087,-9.537075362,11.33275111,1
59.1,-2.88,-1.2,-3.69,4.83,1
108.1739965,2.223393812,8.974417096,4.438608538,10.25596841,1
14.4,0.455,1.71,-0.666,1.89,1
26.3,1.95,0.552,2.55,3.25,1
114.382195,0.953738468,4.714873105,-2.0371559,5.223949619,1
28.8,-0.334,-0.417,1.81,1.88,1
66.57019304,-15.82211766,-9.038402592,-6.246350101,19.26263269,1
108.6152895,3.065848364,6.820537323,3.22942656,8.14544974,1
33.99376467,0.1980380313,-1.881804443,-4.308491033,4.70568826,1
2.461898667,1.694890009,0.3469465873,-2.823305858,3.311205226,1
172.3560079,-1.777817268,1.294570037,1.081227357,2.450632248,1
25.8,1.22,-1.39,3.64,4.08,1
174.4521924,0.2841345542,9.388630929,-1.568555214,9.52299788,1
193.9785371,-4.62122907,-3.61053609,-2.960172805,6.569197211,1
50.7,0.675,-1.43,2.37,2.85,1
29.18727033,-3.617084387,15.6521239,1.325870036,16.11924977,1
60.2,0.335,-0.203,0.402,0.561,1
15.9,0.513,0.209,-0.022,0.554,1
239.961529,-8.729570203,-7.485035375,-15.23330889,19.08624767,1
63.3,0.708,-0.0805,0.239,0.752,1
21.5,0.81,-1.03,0.195,1.32,1
106.739795,2.338138987,9.850808887,3.40331603,10.68119327,1
45.4,-1.18,-2.86,2.19,3.79,1
2.03,1.63,7.3,-1.19,7.58,1
209.2057695,17.59089689,-8.039981748,36.58146751,41.37976226,1
43.57897725,-3.307482504,-1.78001319,-6.065508585,7.13430318,1
92.42737917,-4.952315084,0.2477728397,1.105735962,5.080301969,1
35.59149467,4.444045864,-8.488250935,0.6691249537,9.604565361,1
13.47772979,-0.3817590089,-2.500323792,-11.47589279,11.75131798,1
191.9007318,1.477396975,-9.597703972,-18.42533549,20.82766457,1
133.7723795,2.160074459,8.692595335,0.3276522374,8.962951038,1
10.45627446,-2.192911692,1.371561349,-9.554725767,9.898627517,1
36.9,0.635,0.993,-1.49,1.9,1
92.58841571,1.95176784,9.697767958,2.776280211,10.27442616,1
136.6408226,-1.579119524,-5.923865048,2.97445229,6.814188287,1
149.1576586,-0.4097506535,-8.668609471,-0.9293799908,8.727911144,1
242.651667,-3.711963354,-2.632883972,-9.923272262,10.91705465,1
49.75687408,2.717966807,-3.649404871,-13.89303351,14.61922978,1
29.33783971,-5.182520549,2.075263374,1.305411944,5.73317867,1
272.7752473,6.048703687,-3.954911364,-2.077299374,7.519528767,1
14.0,-1.34,-0.0956,1.48,2.0,1
8.63,-0.111,0.0435,-0.295,0.318,1
82.81993558,0.2740254492,10.0109688,-1.211220902,10.08769758,1
64.22588246,0.06148201078,1.3044033,-1.039415965,1.669021736,1
15.2,4.38,3.26,-4.48,7.07,1
181.3109582,-2.728052961,13.3639213,10.09844783,16.97101394,1
31.7,0.516,1.12,-0.431,1.31,1
104.322037,4.803964499,0.9876178202,3.493900217,6.021694329,1
9.733059458,1.044281579,0.6083083561,-5.675181797,5.802434963,1
191.9639054,1.44586528,4.561166178,-1.206548976,4.934624985,1
69.44099429,4.594413739,-1.252960081,-14.60656923,15.36328127,1
185.434613,-1.998343837,-0.8545378232,-1.497272831,2.639211797,1
18.5,0.556,7.15,1.81,7.4,1
181.8941569,-2.748488395,1.525656677,-1.116726388,3.335999788,1
203.0325613,5.867796682,-11.67579038,40.23090659,42.29989319,1
133.1301577,-10.02973486,10.57293885,39.31591557,41.92998729,1
223.9512397,-5.887942679,-12.50431628,-22.47765123,26.38693994,1
232.4733232,-4.3774414,-2.656525726,-21.33130694,21.93726916,1
12.0,-1.97,-1.94,-1.49,3.15,1
103.129225,-3.214180823,-1.050712493,0.1039833748,3.383159418,1
179.2833455,-1.160220902,-7.482635677,-4.865902008,9.000719503,1
192.1817868,-0.7258933778,-3.270646507,6.556648387,7.362994489,1
17.17474442,-2.079415043,-3.240149184,-5.893385267,7.039497395,1
88.39618887,-0.6455921765,-0.3472328085,0.1769110179,0.7540937541,1
13.9,-1.55,0.192,0.755,1.74,1
155.4261139,2.735519856,2.734263289,3.344313823,5.113090999,1
59.02177929,-1.00290288,-6.611902821,-9.349467448,11.49502565,1
169.0449093,-12.08221865,15.77979902,36.60819864,41.65503898,1
262.4663629,-1.290755167,0.08248510891,2.087370034,2.455598981,1
258.5917512,3.009792861,-1.926028543,-14.47336966,14.90794648,1
46.27374267,-0.5098064536,2.409305449,-7.808918497,8.188031721,1
46.798341,1.067221887,-0.8364199331,-2.6908214,3.013151285,1
84.92921771,0.6624088418,-6.243368021,5.580437023,8.399982565,1
24.3,-1.51,-5.27,3.49,6.49,1
17.1,0.155,7.08,4.49,8.39,1
32.2,0.338,4.22,-2.72,5.03,1
304.5652369,-0.9785261308,-3.449261404,-7.251423907,8.089379846,1
66.00103633,-1.008054716,10.52071503,5.29295925,11.82019613,1
148.3271704,-0.8516799966,-4.796840836,-11.81025529,12.77564757,1
165.250669,-2.770085086,-4.208443126,-11.14120752,12.22746376,1
89.05471308,6.041070147,-0.7067307365,2.850764968,6.717206098,1
2.716982833,63.75222968,-5.338269324,-1.575216508,63.99472803,1
149.4815015,-1.26464618,-6.870122881,-20.1106539,21.28934754,1
157.6521545,22.57731586,-7.699822317,6.151276714,24.63454201,1
16.7,-0.643,0.443,-0.251,0.82,1
229.8634952,-12.3574927,-17.20127936,-22.42316922,30.84461307,1
208.2521847,-4.699622982,1.151030541,-10.42482069,11.49296367,1
41.22276717,-6.998427165,20.88987491,4.009895364,22.39294793,1
25.5,0.816,-0.0298,-0.269,0.86,1
128.7035475,-6.556187627,6.893248034,16.02632933,18.63715902,1
99.02213917,-0.5620402888,-1.476903763,-0.6402204126,1.704997416,1
238.5963865,-0.8814645436,-4.566218757,-14.27421116,15.0126759,1
5.931993083,0.02745921906,-2.905684356,-7.356662094,7.909755543,1
18.1,0.565,0.159,0.0585,0.59,1
4.744645708,-36.94025266,-7.07795339,3.259898155,37.75323333,1
30.18266071,2.909839972,1.467944074,-4.552281334,5.598686793,1
81.95805517,-0.9161101735,0.5682877464,10.2788508,10.33523017,1
191.2984688,-7.847579702,-7.540604389,-22.74825804,25.21762212,1
31.26513396,-0.8455977228,-9.561613787,-2.437952127,9.903691448,1
23.3,-1.65,0.923,-1.21,2.25,1
273.5481634,-2.480124001,1.96369923,-11.54243293,11.96807786,1
208.1216937,-0.8072726595,-2.456611762,-13.94865222,14.18631486,1
54.3,0.602,0.888,0.208,1.09,1
151.5747753,16.78309937,-11.24169543,-9.573539768,22.35398855,1
111.037246,22.33532065,-15.84954227,38.73330368,47.43778402,1
177.9182207,2.140130922,-10.74286479,-9.458147891,14.47224467,1
28.2,0.0976,0.0676,0.626,0.637,1
3.67,-1.78,-2.3,0.101,2.91,1
6.38,-1.95,-0.764,-3.16,3.79,1
228.8496786,-5.556202068,9.638758442,5.698263681,12.49989019,1
37.3,-1.14,-1.35,-0.413,1.82,1
93.69163733,0.1757184783,-12.91876342,2.270480562,13.11794219,1
15.74056333,-0.1629021125,0.3953577322,0.2621043652,0.5015411577,1
23.4,0.0348,-7.79,0.86,7.84,1
85.81867146,-0.8284279588,-2.760319651,0.1425258815,2.885475886,1
149.3610495,2.148240134,-3.70918388,-1.475843078,4.533331393,1
96.39226671,0.5813814529,-0.8095741966,3.593880588,3.72952979,1
177.9382957,1.995627805,-10.66236968,-8.53381127,13.80197784,1
106.5202892,16.05417143,-14.58155601,72.48346985,75.65851966,1
147.895551,0.2386717947,-15.86173956,-21.04716267,26.35592538,1
235.3240599,-1.61254294,-0.30621079,7.059144067,7.247452983,1
8.17,4.35,4.74,-0.136,6.43,1
101.7423513,17.15368654,-18.7458857,20.34195806,32.54923117,1
214.7164924,7.763796703,-6.669738216,20.87847985,23.25237339,1
143.9708282,-1.578540942,-12.76045707,-8.603153985,15.47046588,1
11.2,2.6,0.756,-1.5,3.1,1
225.7981905,-7.680661576,-7.417811691,-15.06990845,18.46939721,1
17.9,-0.647,0.644,0.918,1.29,1
250.96299,10.93447103,5.023789694,15.24405841,19.42118525,1
5.109602917,-0.5258219042,-0.9160186645,-3.898897085,4.039427849,1
0.645,5.8,3.81,-0.316,6.95,1
282.4417209,1.095566923,0.4815168934,0.2275286096,1.218152154,1
38.11101483,-3.546055335,7.093240936,1.282168093,8.033214203,1
49.0,-1.77,-3.82,0.335,4.22,1
58.10833933,1.359017902,-2.282279512,-10.04682861,10.39203996,1
246.666797,15.45661406,1.085949861,40.55758819,43.41663465,1
60.8,1.91,11.6,0.0646,11.7,1
271.2595291,-14.26142563,-4.470786935,-22.61151739,27.10455526,1
38.82784508,-0.9274747487,0.9935911895,-2.895127208,3.198311181,1
59.1,-0.482,-7.26,-1.56,7.44,1
196.7881685,-0.3339432567,0.4860749441,-0.1915477681,0.6200624948,1
105.165203,-0.7550798278,-8.206147338,-11.67114769,14.28729114,1
128.92812,-1.81633814,-2.493059211,-4.395697576,5.369970731,1
142.2573502,5.930688164,10.54790341,-0.7182503361,12.12217852,1
37.69454517,0.4077816036,-2.796941348,-9.985434011,10.37776754,1
248.1523965,26.2151564,0.6954491186,39.42002875,47.34613755,1
304.6656159,-2.609815244,-9.540535744,-20.07367845,22.37823774,1
252.0370395,7.061654277,-14.49207958,-10.36908971,19.16782077,1
103.880379,30.51392643,-12.57941909,48.35173486,58.54256362,1
285.583578,2.617727696,-2.531935009,-10.17963875,10.81148641,1
226.5510249,-13.94151628,-9.665256854,-30.14023088,34.58636413,1
99.75936662,0.69549078,-0.7539167435,-3.448080851,3.597410101,1
19.5,6.33,6.14,3.08,9.34,1
74.30516146,0.8676420182,0.8943674482,0.01134359837,1.246123783,1
44.7,-1.2,0.351,-0.405,1.31,1
76.02575717,-2.696262527,-5.13751453,-10.68389912,12.15769664,1
133.5717895,1.178455444,-1.747871922,-11.30300115,11.49789757,1
19.9,2.02,-3.05,-3.45,5.03,1
49.7,0.114,0.184,1.11,1.13,1
6.98,0.497,0.63,0.00137,0.802,1
297.2777199,-3.514360502,-3.57431522,-14.56935404,15.40754803,1
0.753,12.3,0.99,-8.69,15.1,1
9.562563458,-0.01773747386,1.474581541,13.70700317,13.78610319,1
98.43995417,-3.631360071,-1.592583908,-1.676027184,4.3049003,1
35.8,-2.89,-3.73,1.24,4.88,1
189.5117567,0.3904663901,0.450348822,-3.199345559,3.2543955,1
281.3676683,1.427770194,-4.736997215,-4.819209652,6.906696172,1
191.1815934,0.03553952292,-11.82888335,-8.355397518,14.48227924,1
97.25203808,4.01472955,-1.365254542,-1.239449505,4.417941647,1
135.0962772,0.3710139096,10.6226624,-0.7464216363,10.65531572,1
294.5674877,-1.736035111,-12.5007565,43.55720982,45.34879555,1
204.7791273,-0.6684163443,0.9679673749,-12.93901817,12.99237979,1
1.08,-2.49,4.09,-6.76,8.28,1
236.6490505,-0.3188381445,3.204728214,4.883945346,5.850201948,1
156.2786251,0.4283770321,-3.283189954,-0.9202884476,3.436535171,1
59.1,-1.77,-4.27,-1.44,4.84,1
42.18640517,-2.703995762,16.80416805,2.891358093,17.26417124,1
117.3910935,-4.937973619,-6.200554708,-13.3215629,15.50143543,1
19.3,-1.44,-3.38,2.13,4.25,1
157.4621102,-5.818836191,4.632316267,-0.07486716449,7.437930742,1
59.7,-0.701,0.313,0.0084,0.768,1
3.32,0.134,0.749,-0.43,0.874,1
246.817365,14.07568415,-4.694066665,-19.74059064,24.69514254,1
25.33854154,-1.467710039,-0.5136691242,-4.652143591,4.905147166,1
106.4299502,5.884492237,-15.30159501,-16.83258786,23.4968524,1
10.95817646,-0.2251236498,-5.868176751,-14.648309,15.78160751,1
59.4,-0.918,12.7,4.35,13.4,1
125.237252,-0.4574488401,-0.746151495,-0.5062390673,1.011078379,1
137.1652968,-2.96039763,-11.11662115,-12.56957004,17.03928727,1
162.8215532,7.511281772,-4.063744127,21.90958722,23.51517345,1
101.6248233,2.819895177,9.290338649,-0.7341910154,9.736592704,1
0.845,-1.15,0.38,-2.61,2.88,1
8.25,-0.941,-1.63,-0.3,1.91,1
95.96064667,-2.144366061,1.116485775,1.08103323,2.648297403,1
217.256047,0.3823634648,-0.04109627813,-6.79934409,6.810210773,1
185.304228,13.04872129,-10.64259205,5.921416234,17.84928747,1
34.0,-0.137,-1.18,0.856,1.46,1
75.71927233,-1.39090233,4.883909093,-0.3481537449,5.090028325,1
61.73866533,0.1672829926,0.3442937786,-0.4825256842,0.6159162618,1
295.6415421,-1.20268002,-6.486713349,-18.56309823,19.70057119,1
257.9292537,21.78297395,1.986317284,22.02574332,31.04153313,1
273.5682394,-3.13080479,0.8939731997,-12.56815501,12.9830523,1
45.3,0.592,0.784,-0.342,1.04,1
51.6,0.176,0.856,-0.626,1.08,1
44.4,3.15,1.8,1.81,4.06,1
31.16475467,20.30684436,-32.68036193,2.716759064,38.57142418,1
22.24953617,1.352821461,3.902767357,-0.3628980839,4.146494178,1
140.4018901,1.594628679,9.069247824,-14.71084614,17.35520357,1
150.6559063,2.209682091,-2.921347293,-1.661200106,4.022008297,1
193.4565761,-2.730694149,-5.663712484,-3.17032232,7.041681137,1
156.0963177,-12.68719731,-12.87035783,-12.77383082,22.13101534,1
81.64651808,0.4791857547,-1.918507124,2.087830356,2.875643261,1
87.75985058,-3.390729313,2.734014782,-7.013722311,8.256160292,1
135.0674257,-9.529932404,6.564243336,21.63257888,24.53318918,1
58.9,-6.26,-18.7,-3.03,19.9,1
16.7,-3.31,2.15,-1.32,4.16,1
116.8293747,0.2042049435,4.237056184,1.299376448,4.436521601,1
124.2468242,1.623744451,0.9457335567,34.11933364,34.1710387,1
52.6,0.501,2.17,-0.996,2.44,1
133.3509852,-2.396092495,-14.30538149,-3.773163237,14.98739336,1
203.1931653,0.1259463208,-0.08227332093,-8.534326994,8.535652794,1
138.179099,0.1561735752,-7.810891348,-12.37792404,14.63719294,1
32.1,0.506,3.75,-2.19,4.37,1
183.5891621,1.135420229,-0.3677705687,0.9717280117,1.53905478,1
50.54924604,-0.8318119618,-0.7718342203,-3.935731035,4.09604907,1
1.632891417,3.056108949,-0.7098714953,-5.277154226,6.13938728,1
264.7449558,-1.581297174,-5.548262134,22.1537225,22.89259999,1
133.9331702,0.13048281,-12.86793123,-7.924912637,15.11307117,1
79.07904525,-3.543839532,-28.81799533,-40.98526289,50.22775555,1
27.3,-2.71,1.65,-1.03,3.34,1
56.1,-1.51,-2.22,-0.464,2.72,1
13.99970879,-5.041951146,-3.619400469,-8.750833018,10.72839269,1
160.3506196,-1.233817466,-3.326238325,0.6005423766,3.598168712,1
33.16133921,-0.8946947461,-2.030017619,-6.130247787,6.519308871,1
62.0,-0.092,1.53,0.391,1.58,1
186.7484932,0.7220980963,-0.2291705078,-0.05324226066,0.7594600191,1
242.1096242,2.955788562,4.176584572,5.820495046,7.749755306,1
305.4786869,16.75338849,-6.950741951,43.62269395,47.24328807,1
31.10534833,-0.6842614216,-0.4552931544,-1.662723598,1.854765569,1
152.874228,6.538522604,-4.104843914,17.78854447,19.39160477,1
182.1348669,2.193745797,-8.568232659,12.99754646,15.7214295,1
300.4898473,2.979438211,-0.7183380443,-2.83274268,4.173426972,1
1.57,-0.921,7.0,-2.51,7.49,1
298.3015843,1.731902592,0.3155771524,2.655597188,3.18610608,1
182.7463489,-0.9388821548,-9.387702976,-1.13439492,9.502490131,1
112.1313514,6.482158368,4.71210094,21.487596,22.93336116,1
89.178466,-0.08694970474,2.313353224,1.196929722,2.606109006,1
0.936,1.19,0.813,0.634,1.58,1
232.4030582,-1.918684002,-4.389684885,-11.59985025,12.55018755,1
60.5,-2.46,-3.18,-2.98,5.0,1
73.60666242,2.779774507,-2.283769822,-12.51275381,13.01966816,1
63.9,3.51,-0.341,3.47,4.94,1
257.2868318,-3.752564081,7.077773881,-10.65386549,13.3297213,1
68.22642521,-6.805014135,0.7461865783,-11.66827554,13.52825435,1
38.8,-1.02,-9.86,0.181,9.92,1
61.0,6.91,-14.7,7.23,17.7,1
176.9395319,-0.04103535745,-6.165811722,0.5305488298,6.188731708,1
143.6414236,-1.746445202,4.982894268,1.892115862,5.608868742,1
50.77069567,-0.4451960362,1.964755383,-2.590965575,3.282006374,1
38.4,-0.0231,0.244,0.207,0.321,1
51.44184167,-0.72538467,-2.675839664,12.92140636,13.21548498,1
110.394834,-4.984680592,-12.97095683,-23.43528249,27.24527899,1
39.59662592,16.89979225,-46.64565767,-16.22869678,52.19953023,1
144.713614,-2.019849165,-10.07655585,-1.4606754,10.38028618,1
50.17816704,0.1705140178,-4.375755647,-8.778359955,9.809990623,1
36.9,-0.545,1.93,-1.99,2.82,1
48.60359254,-3.210203839,6.068954934,9.906605358,12.05315114,1
61.27333742,-0.1335878277,-0.4627290586,-0.5888040912,0.7606932017,1
162.1860271,2.311746117,0.2966532236,0.1003591975,2.332862022,1
55.05233867,-0.4118545548,1.114705006,-1.199468583,1.688465666,1
55.6,-4.46,-2.11,4.11,6.42,1
33.7,2.11,0.995,1.16,2.61,1
39.7,-0.508,-0.387,-2.62,2.7,1
120.0310031,3.687055677,-4.704496052,7.363503336,9.484083722,1
21.9,-0.848,4.35,5.71,7.23,1
274.8129354,-6.874051625,-12.43594245,-20.78357253,25.17661886,1
35.5,-0.00817,0.518,-0.311,0.604,1
267.1239287,0.02752869129,-4.214026048,-12.50775561,13.19858795,1
41.8,1.13,1.03,-0.642,1.66,1
233.2863852,2.467045534,-0.5747152251,12.65132464,12.90242715,1
23.08196358,-0.1651074812,0.3092215213,-1.319577994,1.3653441,1
178.8316495,-4.596240701,9.707293072,9.301743643,14.20842715,1
55.0,0.0138,-0.338,0.526,0.626,1
184.884377,-5.881739368,-1.577542676,19.62127703,20.54453726,1
186.2570412,-17.18956739,-1.285936038,-11.49762572,20.72028609,1
62.8,0.706,4.63,0.526,4.71,1
176.7638858,-4.383792061,-14.19670631,-6.791235171,16.33661465,1
47.3,-0.6,-9.87,-2.29,10.1,1
187.1830103,-3.527496564,-4.441184236,-10.29978617,11.75810123,1
26.8,2.17,-3.54,-1.38,4.37,1
96.57294571,0.5789914401,-1.194017224,1.023398395,1.675784143,1
39.48977308,-0.0862723048,-0.1373730227,-0.1060573822,0.1938102842,1
147.0815482,0.2510835332,9.301199268,0.07459119419,9.304886598,1
6.82,0.818,-0.0159,-0.885,1.2,1
31.3,3.92,-8.16,5.78,10.7,1
98.39980317,-1.826936218,-0.5856778774,1.51183386,2.442612565,1
61.56817033,-0.0381779328,0.2101159669,-0.2654507267,0.3406910072,1
53.277176,1.006919991,0.8348417696,2.647599952,2.953071986,1
219.1531839,-10.30125031,1.523518351,1.650283062,10.54325853,1
30.8,0.0686,0.0806,-0.0708,0.127,1
63.03241958,-0.3805056582,-5.204021931e-05,0.475511072,0.6090117718,1
41.5,-0.645,0.0344,-0.297,0.711,1
19.7,2.4,7.68,1.51,8.19,1
28.26377433,3.100570007,-3.169618315,1.872833937,4.813265169,1
23.4,0.0534,-3.94,-3.56,5.31,1
119.9507011,8.922352903,1.794205551,40.46153481,41.47244089,1
38.82370679,-0.3203648525,11.567804,0.4064387906,11.57937458,1
58.97159029,-0.2350680826,-6.292233202,-7.436072545,9.743850911,1
75.34819333,-2.911643838,-37.65823929,3.531378238,37.93535671,1
126.3505302,-0.1970041705,0.05803303063,-1.050525382,1.070412096,1
45.7,0.462,0.137,-0.633,0.795,1
106.288474,3.153068941,-11.10989919,4.910753075,12.5493904,1
264.5040468,-0.6038319836,-0.662703103,0.565330444,1.059899513,1
39.51632292,-3.726025908,8.435831816,0.908017627,9.26666194,1
187.7915752,-0.904091441,9.414857445,-2.767604113,9.854773187,1
189.2659307,0.9256782648,3.727436256,1.431873332,4.098892842,1
29.9,-0.747,-0.337,-1.19,1.44,1
23.0,0.836,-3.95,1.03,4.17,1
81.94739458,-0.7690570121,1.375234131,2.747744045,3.167461908,1
231.9312819,-1.450675931,-7.046501802,-16.03448853,17.57448351,1
114.1489247,3.158391076,-7.693795007,-6.743268707,10.70708124,1
10.9,-3.3,-1.2,-2.75,4.46,1
60.69164342,0.05421969585,0.318761546,0.8812999445,0.9387429312,1
251.264125,10.41250529,-16.3890976,-18.40474393,26.75364248,1
156.8202201,-1.115009646,-0.6860093737,0.2477476966,1.332379185,1
183.7797251,0.2189650699,-1.028598908,-1.604361662,1.918316386,1
92.14712771,-3.632176927,-0.1889855182,1.253546557,3.847051303,1
42.32693592,-4.125088436,4.014600034,2.182237015,6.155934245,1
67.39508387,0.119862366,8.723147621,2.517089806,9.079835488,1
137.7841873,-1.392902809,-21.53177756,-9.022078335,23.38708021,1
23.7,-1.44,-1.09,-1.83,2.57,1
82.27926229,14.95524338,0.06527685374,34.95981008,38.02435912,1
19.0,-0.476,-1.18,-1.61,2.05,1
57.1,1.56,4.61,-0.931,4.96,1
31.5,-3.39,-2.05,-2.47,4.67,1
111.4989784,9.773972965,-8.972686905,-8.064888548,15.52681825,1
80.64359946,1.352339358,-3.080102706,-2.509695125,4.196954138,1
127.2732472,0.05293125731,-0.546480044,-8.31466289,8.332770315,1
31.3,1.91,8.87,1.03,9.13,1
70.47402658,-2.137523503,1.983653877,0.7782492006,3.018204971,1
147.9641465,9.756080486,-9.141587822,5.665319299,14.52052262,1
50.14807904,0.4528510648,-4.123091612,-8.354435651,9.327462333,1
55.2,-1.3,-0.594,-1.6,2.14,1
2.040674667,-7.865878564,0.06093120307,-2.632169734,8.294822222,1
127.4537792,-0.2465350937,-3.580081159,-8.035301637,8.800217785,1
231.2085604,-14.67227089,-23.80117551,-21.25439969,35.12151755,1
95.45876167,-0.8174176517,3.189909908,-4.341557622,5.449111801,1
58.562547,-4.654651754,-1.345202101,16.42506149,17.12477727,1
195.9961178,-1.096581196,-1.191922166,-9.131351686,9.273874723,1
105.867839,7.36291803,-8.929481828,-12.35783768,16.93116534,1
2.46,0.125,-0.459,0.846,0.97,1
48.0,-2.56,2.18,1.08,3.54,1
9.45,8.93,1.84,8.5,12.5,1
14.2,-4.03,-9.3,1.34,10.2,1
51.59227867,2.653749468,2.997706667,-5.258447229,6.609076998,1
34.00549808,-2.179165765,-4.925834214,-2.618493097,5.989082754,1
66.35205533,-3.111782336,-26.35777466,11.54193592,28.94186862,1
45.8,-0.744,11.2,3.32,11.7,1
30.5,-0.474,-0.42,-3.42,3.48,1
70.14363729,1.46675782,0.3295344561,-12.27071885,12.36246385,1
8.38,1.21,0.179,0.18,1.23,1
159.2581817,-0.4397821724,-12.12042786,-10.63854812,16.13309908,1
246.917743,4.448661656,-9.160438076,-27.30307765,29.1403889,1
46.4,-3.32,0.885,-0.94,3.56,1
11.1,5.88,4.47,4.8,8.81,1
85.99919687,1.8352647,-0.7347763216,-1.302551486,2.36743176,1
22.3,1.01,-0.117,-0.21,1.03,1
4.59,0.298,0.12,-0.448,0.552,1
2.58,1.2,-18.0,4.54,18.6,1
147.2721095,1.24573263,-14.08732479,-2.169781276,14.30777831,1
32.88052121,2.805749593,-2.947580241,34.23817946,34.47917332,1
51.12090867,-3.746243826,5.843715509,13.18274182,14.89859173,1
260.207845,3.347535639,-5.27566611,-6.436631947,8.970444726,1
28.8,0.142,-0.534,1.42,1.52,1
12.5,-0.883,-6.96,-9.49,11.8,1
77.96580746,-4.409584129,-1.9838252,7.9084422,9.26949042,1
257.0559618,-8.554098769,-16.54206778,-16.34160652,24.7762127,1
269.4025235,-0.4348647371,-1.516685002,-4.504334165,4.772679228,1
287.1996768,-0.7791293527,-6.267227,-17.06591048,18.19699088,1
88.81380808,3.976948058,0.8454198213,1.605405098,4.371289976,1
11.5,3.6,2.58,1.77,4.77,1
251.7459415,27.58871881,-8.652161838,-4.935547024,29.33184165,1
126.8319482,-0.5771148493,3.059808775,7.676552737,8.284017939,1
52.4,2.85,-32.8,11.3,34.9,1
23.46307458,-0.3284057973,-0.2462616268,-2.361512647,2.39692243,1
48.3,-2.1,-0.00596,0.422,2.14,1
127.9808356,-0.588084299,-13.25994143,-14.18459205,19.42613038,1
264.8453348,3.93075944,-1.14169473,-7.057912059,8.158949642,1
72.50250967,11.9964704,-17.86361336,44.50306478,49.43224412,1
84.74853971,3.49578039,1.238473897,4.186617517,5.593037132,1
84.69835071,-1.519411851,-5.283238839,1.365749947,5.664494498,1
299.124692,4.888533948,-0.3105972981,9.888460279,11.03521099,1
55.4,-6.48,9.8,-8.03,14.2,1
53.1,0.106,1.71,0.172,1.73,1
11.35969829,-0.9614097957,-3.887969516,-11.19620175,11.89098606,1
55.49850983,1.2678889,-5.859596547,-9.743281515,11.44001524,1
115.293219,16.93370025,-8.687683674,17.27637749,25.7040711,1
178.7312725,-4.658881338,-0.4567729385,20.43620816,20.96550549,1
18.7,0.408,0.749,-0.448,0.964,1
9.41,2.69,10.8,-9.01,14.3,1
106.118781,31.31374601,-15.04706338,60.98692703,70.18810494,1
29.81966371,-4.637374986,3.030785535,0.5090246078,5.563273656,1
193.7577071,-11.09137755,-1.522490118,4.097515891,11.92167222,1
18.36626954,-3.725577427,2.139330146,-1.600161899,4.584449666,1
131.6044325,-3.710043129,6.443912315,38.21846804,38.93507063,1
1.713194417,-2.781467569,-8.660122823,-25.2238826,26.81377524,1
221.0402842,1.887089742,1.352119503,0.8825331223,2.483586027,1
4.62,-0.0742,0.125,-0.658,0.674,1
41.70458617,-5.516536312,18.84270623,2.368854411,19.77602645,1
6.86,1.12,0.131,-0.875,1.43,1
191.6228974,3.017954697,9.569974721,-0.4108891064,10.0429725,1
196.0058543,3.022287484,0.02697759122,-1.628046101,3.432999204,1
15.48983371,-0.3557930591,-1.93634347,-6.103360536,6.413035519,1
230.1144402,-6.423326023,-6.383625768,-6.288875731,11.02541397,1
180.9094516,-0.3536539283,-11.73600969,-4.586864691,12.60548778,1
193.245785,2.12845374,8.897525625,23.68491416,25.39038078,1
40.9,7.25,-21.1,10.3,24.6,1
42.11471717,0.9940466876,-0.6092450801,-2.983645282,3.203349428,1
41.5,0.251,0.406,-0.00856,0.477,1
152.7081109,1.727581792,6.447969114,-0.9765271139,6.746439783,1
200.5331677,1.23605198,6.286293601,37.02272413,37.57296121,1
270.7877491,39.62201029,-8.967674087,24.53097585,47.45620776,1
20.2,5.93,-0.841,0.994,6.07,1
95.96828683,3.525131658,10.47914834,4.622999022,11.98379002,1
34.49522567,-0.5350102919,0.1418826878,2.67639515,2.733030865,1
189.2859907,-0.1859151453,2.906666688,1.300883861,3.189917632,1
170.8014229,-1.458015648,4.829901286,-3.490741552,6.135065822,1
51.43181167,-0.3200534883,-2.636581458,11.61789125,11.91760853,1
8.700051208,0.3711946251,-0.4662791955,0.1384205514,0.6118512785,1
136.2719448,-2.180882215,-11.31756071,-11.02115951,15.94708076,1
171.8956105,-6.778913918,-3.038885098,2.601659548,7.871285089,1
255.1889214,-9.086794733,5.128554257,-4.886962509,11.52190565,1
177.1653928,-4.862342515,-11.82841908,-2.52515107,13.03573015,1
18.21569854,-2.289640134,-1.557079614,-10.67460439,11.02787957,1
56.69712138,-1.588305208,0.5729344556,-0.9749033421,1.949718916,1
72.60288767,-2.644629858,0.4028031015,-7.626190084,8.081775339,1
130.7010427,-3.840465274,5.624506903,12.1764898,13.9517438,1
45.1,0.836,1.94,-1.7,2.71,1
6.099771667,31.37627847,5.389521339,24.3333844,40.07033052,1
215.4492492,8.471147245,-3.046077758,5.911774176,10.76977248,1
9.84,0.199,-0.692,0.284,0.774,1
207.1279579,-1.410068626,1.105353408,0.5511129391,1.874519981,1
30.4,1.66,0.523,-0.954,1.99,1
15.4,0.336,0.772,1.22,1.48,1
262.0748863,-5.028497872,0.1434833631,-6.383577821,8.127511558,1
170.5505612,-5.233189597,-9.040124597,1.469022886,10.54837212,1
301.0519693,-0.4848582117,-2.748407119,-12.68729086,12.99061887,1
156.5178987,-3.315716845,-14.03476066,-12.95345729,19.38454386,1
12.7,0.241,2.04,0.577,2.13,1
173.4291739,2.156974412,-3.502327809,-2.983227206,5.081189158,1
62.4,0.155,-0.144,0.148,0.258,1
41.3,-2.67,2.52,3.09,4.8,1
221.7931178,-0.8848679155,-2.174896128,-17.12377686,17.28400701,1
98.17473375,2.280164428,9.892777863,1.096028707,10.21114502,1
30.8,0.307,0.457,0.0239,0.551,1
52.32655817,7.44971176,10.15452964,23.24895277,26.44100003,1
178.0988987,-4.41042262,-4.591196016,11.48228263,13.12911737,1
19.9,1.21,-2.9,-3.4,4.63,1
259.404817,-0.06234125912,0.01971564174,3.304330562,3.304977398,1
28.2,0.0361,0.345,0.423,0.547,1
130.6431687,0.1229321542,8.949504449,2.623947964,9.327049111,1
184.1817381,-1.939422906,-7.985385126,-10.06026785,12.98987013,1
18.2,-0.0568,0.292,0.678,0.741,1
223.6501057,-10.60738831,-3.013286865,-11.22131438,15.73259294,1
29.4,6.21,10.7,0.848,12.4,1
17.86436617,-2.334037457,-3.853563914,-12.59636549,13.37782154,1
303.5313312,2.051611679,-0.813245371,-5.01956742,5.483296052,1
38.5,-1.78,5.94,-0.89,6.26,1
200.9647897,-10.58345565,1.526664884,32.74623432,34.44787514,1
289.9600965,16.29054395,-8.290802742,28.88631186,34.18388868,1
108.1062424,-6.194594057,-14.84544086,-24.83655368,29.59078418,1
176.6735468,0.3733400416,-13.33998748,-9.694085382,16.49454274,1
4.18,2.49,0.124,1.67,3.0,1
11.6,-4.68,-10.4,1.48,11.5,1
156.7901311,-0.6930765378,0.6843043256,-1.523495547,1.808221828,1
206.5156559,-2.170582198,-0.8851102826,-12.03380721,12.25999034,1
43.8,-2.24,-3.83,1.82,4.8,1
18.99866754,-0.32437078,1.336367104,-6.777542746,6.915647411,1
29.7,2.22,-4.0,-0.637,4.62,1
43.42299167,-0.08096990347,-0.08900924027,-0.06913221538,0.1387733163,1
57.61648633,-0.9044256824,-5.986141988,-8.8433348,10.71711025,1
217.747896,-10.44887848,-0.7747339276,-1.337532454,10.56258809,1
226.7618189,13.84958986,-2.93790193,5.064444215,15.03632277,1
10.8,-1.77,-9.52,3.09,10.2,1
114.9419015,10.30761209,-2.001707155,8.748606398,13.66718012,1
241.3567872,-3.64005722,2.131342557,-4.547909371,6.202912002,1
121.0247312,4.110680604,-3.148471275,-1.390327549,5.361303675,1
201.7075818,0.1516682956,10.33343105,-5.5803078,11.74489828,1
77.57156929,2.97420086,-0.2750919083,-4.059072202,5.039604494,1
54.23374492,-3.087137491,-0.9415332824,-4.744186367,5.737961929,1
240.242588,-8.189987973,6.164696074,2.415254406,10.53151625,1
20.4,-0.89,-0.058,0.767,1.18,1
32.1,1.65,-0.946,1.68,2.54,1
4.9,2.16,1.27,-1.29,2.82,1
128.205994,-0.8355653626,3.094086322,2.661484165,4.165937782,1
233.1257802,-2.354205527,-2.891452818,-16.6997321,17.11092737,1
1.910295667,-0.8206586172,-0.2091812164,-1.129003787,1.411342233,1
107.0908273,1.851282855,-6.695299319,-7.345726047,10.1100926,1
38.2,1.75,-0.104,-0.0301,1.76,1
87.50890758,4.040304394,-4.985816122,12.39168838,13.95479713,1
166.3884126,-3.226451497,1.857278005,3.479743524,5.095889112,1
80.34272346,4.814319041,-3.110991792,-10.95990057,12.36832075,1
28.9,0.236,0.744,-0.883,1.18,1
298.662949,11.08659219,-4.357061514,35.95664574,37.87844881,1
108.6783898,3.30007759,-7.233693395,-12.56109041,14.86599557,1
236.5386345,-7.551465592,3.226635392,-3.950145006,9.112598647,1
153.4502959,-1.200373439,-0.7456153053,1.1357275,1.812930096,1
58.42954829,-2.520082703,5.022667614,-5.578326178,7.918063509,1
42.2,-0.464,0.806,0.286,0.973,1
51.9,-1.87,-1.62,0.268,2.48,1
64.53252546,-4.362220513,-1.934590475,-15.76868814,16.47492439,1
225.3866415,-1.606537703,-4.977022494,-10.70633606,11.9154248,1
26.7,3.49,9.83,-3.34,10.9,1
132.869723,1.074772981,-10.2648666,0.8466546071,10.35564809,1
26.7,0.409,-0.0703,-0.295,0.509,1
176.6534708,0.869888957,-12.69738783,-9.41851137,15.83315259,1
180.6083206,-7.004143403,-2.797356208,9.427506142,12.07315612,1
59.3,1.31,0.62,0.0224,1.45,1
46.9,0.549,0.0662,-0.416,0.692,1
54.6,0.0178,0.656,-0.412,0.775,1
38.59283479,-6.052518411,10.25732135,1.105828933,11.96112361,1
110.685927,9.054823912,-4.634092359,5.525586047,11.57569649,1
159.4279014,0.2687351809,0.9541018724,-2.372388468,2.571139052,1
190.4251882,-7.154158983,-0.4102846505,8.471736059,11.09597387,1
146.4998362,-1.105971312,-12.86660158,-4.670835385,13.73278238,1
40.6,0.834,0.156,-0.0724,0.852,1
23.0,-0.61,0.0364,1.75,1.86,1
237.4922263,-3.000899246,-0.7575072263,-8.898900306,9.421764173,1
34.4,-8.52,1.27,-8.28,12.0,1
46.5,0.171,-0.312,0.856,0.927,1
260.5190194,0.09308708847,0.9987814705,1.189820677,1.556246406,1
58.0,2.34,-2.14,-1.71,3.6,1
14.61203104,-3.343551931,4.402457542,16.93838972,17.81768835,1
35.04683242,-3.890121291,5.172539352,3.634422843,7.42275127,1
34.93902771,-3.797727098,13.18734591,0.98443942,13.75855895,1
156.7299541,-0.5009305995,0.5961388385,-1.514955103,1.703350212,1
53.3,-0.103,0.821,-0.588,1.01,1
245.0005181,-5.885299737,4.852970306,-4.796821833,9.010969619,1
106.107945,1.722014073,9.756654097,1.863237487,10.08113513,1
305.4184599,16.86700925,-14.66555361,-8.5579094,23.93349696,1
239.0882395,-6.325788034,-4.023468506,-15.43903265,17.16297242,1
191.6931044,2.947995978,9.381362255,0.1298339152,9.83450532,1
25.4,1.29,-0.741,-1.38,2.03,1
86.77144787,4.896435583,-0.5128146268,-11.26150931,12.2906327,1
186.146717,2.639631366,8.488470206,-0.3316236663,8.895603096,1
86.05937187,-0.05004149482,-2.600252708,-0.4572741911,2.640628331,1
48.5,1.67,0.474,-0.989,2.0,1
57.97784733,-1.611361071,0.371944092,-6.58411042,6.788618191,1
153.3399709,-0.8088652217,-0.2894301581,0.8780120552,1.228388348,1
29.71928371,-3.029534816,6.443931026,2.395025525,7.512554528,1
66.0,0.277,-0.174,-0.0559,0.332,1
94.87509237,-0.6048937283,0.5084563315,0.1818353967,0.8108565688,1
57.22501233,2.232241672,-2.803208686,-7.121780026,7.972492243,1
245.9239992,37.45726347,-7.229089882,51.0112684,63.69816191,1
36.9,-0.276,-0.159,0.392,0.505,1
79.95051017,2.498072029,0.1624157703,11.72447196,11.98874412,1
64.5,-5.26,-3.6,-4.76,7.96,1
277.3324425,-1.720310487,-2.21127765,9.100796476,9.522274598,1
244.2978705,-4.203437325,-1.184333358,0.1249620152,4.36888388,1
102.236613,0.7983231305,10.62767815,3.355183797,11.17327709,1
124.1207857,0.2778240198,-0.7103513324,1.019254473,1.27305337,1
139.8052021,-1.475545747,-11.47171086,-9.764273604,15.1366583,1
19.81175058,1.586538472,1.207911451,7.607275511,7.864273335,1
126.3405012,-0.07479778362,0.005652795732,-0.7591393304,0.762836277,1
130.9039367,-4.075474226,-8.843748198,-1.016730522,9.790562462,1
145.4968841,-1.331133554,0.4338522917,0.6943001407,1.56275303,1
182.1047789,0.00110936299,-9.68550927,13.48809043,16.60535078,1
9.913585458,-2.227060747,-2.431447392,-7.553930778,8.242184552,1
181.6735049,0.9734706281,8.21170804,0.4815362988,8.283216236,1
44.8,0.011,0.512,0.722,0.885,1
19.8,-0.364,6.27,0.941,6.35,1
81.78741317,2.194788648,-6.083155482,-16.13203295,17.37999899,1
13.4,3.41,0.75,-0.835,3.59,1
15.77644771,-0.9479633193,-0.761817209,3.160040576,3.385979379,1
49.8,-6.08,2.77,0.423,6.7,1
92.70843417,0.659659481,1.295074944,2.168811808,2.610768929,1
31.68672896,2.600425493,-10.1774671,0.6674818861,10.52561549,1
244.0670005,-2.321075642,-6.66946749,-10.12964623,12.34823556,1
30.0,-1.5,0.448,-0.434,1.62,1
61.8,-1.73,-5.63,-1.22,6.01,1
11.8,3.8,6.6,-3.07,8.21,1
28.91897629,0.4012416391,-0.06414454043,3.564274381,3.58736132,1
185.916035,-0.3534179932,11.12133167,-1.501951334,11.22785732,1
78.32685746,0.527312798,1.943627931,-1.825076804,2.717839889,1
96.87407571,0.4705876433,-1.994779374,3.334719712,3.914198901,1
47.87146067,-2.810462449,-1.30771107,-4.454205401,5.426670542,1
59.33295054,-5.008267676,4.171037903,4.979894646,8.202417509,1
155.6868819,2.893553723,10.91563247,-0.8724957919,11.32629393,1
14.06568208,-5.268037248,3.383390473,14.88904354,16.15187807,1
55.8,-1.44,-1.66,-1.84,2.86,1
0.8171160417,0.4544301054,1.2509042,-1.380356877,1.917460077,1
34.1,-0.871,0.148,-0.256,0.92,1
63.22297258,0.1848673242,0.01611960411,-0.02665833324,0.1874738273,1
11.2,1.54,9.22,4.13,10.2,1
222.5559887,15.61027421,-6.404216738,19.41339682,25.72109307,1
1.77,0.537,0.2,-0.519,0.773,1
9.49,3.83,7.08,0.386,8.06,1
53.1,0.464,-1.72,-4.46,4.8,1
165.3209323,-1.110375289,-2.659412497,0.4535194016,2.917376897,1
37.6,-1.47,-8.38,-12.7,15.3,1
9.964409458,3.436991899,0.5860152617,-2.198402227,4.121807801,1
42.4,-3.49,-8.17,2.14,9.14,1
108.4849065,-6.782236306,-21.05824197,-5.651262007,22.83385746,1
1.7,-2.83,-1.91,-3.4,4.81,1
36.9,-0.345,0.0618,-0.197,0.402,1
195.3438973,-0.3040210077,-0.2743156904,0.9468276438,1.031581533,1
294.7983597,-0.9009794066,-3.866449423,-14.25249226,14.79509144,1
176.0067791,-0.03749351621,-0.1448226678,-1.198928885,1.208225906,1
7.72,2.18,0.344,-1.55,2.69,1
44.4,-2.74,5.74,1.91,6.64,1
42.0,0.388,0.0645,-0.448,0.596,1
288.5547925,-5.08507787,-6.599445913,-14.26478544,16.51952805,1
77.79239929,1.890631254,-0.2239246783,3.110616401,3.64699372,1
210.7013928,-1.30089994,-6.10107252,-17.71863282,18.78471122,1
54.3,4.06,2.98,7.98,9.44,1
99.65907362,4.969595361,-5.567263246,-12.05996064,14.1821701,1
31.2,-2.36,1.07,-1.26,2.88,1
61.0,-0.81,0.216,0.202,0.862,1
114.271871,2.730505868,-1.972801445,0.1271767943,3.37102088,1
30.3,-0.0256,0.102,-0.0174,0.107,1
27.63523517,0.5282104918,-3.579319852,-7.527607198,8.35197025,1
35.39073567,-4.96582683,13.37766694,3.662353238,14.732082,1
48.30138742,8.05689365,1.143697255,10.84321236,13.55716906,1
48.8,0.798,0.697,0.261,1.09,1
11.2,0.194,9.19,-0.787,9.22,1
290.4820658,3.916341375,-1.611539265,11.22912158,12.00116494,1
176.0569271,0.3150984116,2.154437013,-1.211283467,2.491604601,1
38.02067283,-2.877211339,9.125536045,2.17871012,9.813283395,1
30.3,0.0866,0.172,-0.158,0.249,1
179.8454567,3.491604601,-6.067159254,-13.75174373,15.43088395,1
107.8229713,2.124182788,-23.22572763,6.056763489,24.0962852,1
15.9,0.58,0.106,-2.13,2.21,1
65.50960921,1.276926064,3.126060067,-4.682161442,5.772817985,1
37.5,-1.65,-1.17,1.96,2.82,1
94.49514304,0.795191581,0.393860845,0.7147279733,1.139426212,1
158.6455964,-0.6401362127,9.831962142,0.4146295702,9.861499461,1
297.5085903,1.815765844,0.5042682633,-3.354133052,3.84727184,1
187.5207752,3.149362975,0.149471789,-0.6913138946,3.227807904,1
219.9160543,-13.66224858,-3.478915558,-12.97595854,19.16077738,1
84.87592358,-1.670560914,-21.58741499,-0.8236811891,21.66761894,1
21.51740192,-1.563391245,2.115180122,-2.771048123,3.820587237,1
155.5944347,-6.359168619,-9.217648988,-16.93006913,20.29855461,1
29.83163771,-3.777412993,-5.234907508,-5.052235814,8.197450351,1
113.2388421,-8.202264202,-17.75990247,5.420241441,20.29951455,1
215.6700792,-15.70767829,9.625754235,4.169354782,18.88835147,1
58.9,-1.63,4.42,-0.00198,4.71,1
155.2832667,29.39923663,-0.2029422373,30.28945884,42.2114631,1
14.0,-1.59,1.81,-0.107,2.41,1
175.1241754,0.5099174045,2.780943366,-4.501716952,5.315930518,1
10.07405246,-0.8654132058,-2.716915477,-8.271774148,8.749446684,1
264.3835928,1.78421573,1.608852616,2.605787682,3.544285817,1
102.5152537,4.769163626,-1.881064332,-5.211862462,7.310734233,1
1.55,5.71,5.67,8.16,11.5,1
136.9243928,4.477632563,-5.440185708,13.36432593,15.10794564,1
177.5814265,9.36240032,2.00441617,8.335521662,12.69461088,1
288.9864215,-3.311599236,-3.953441959,-15.3463075,16.18967408,1
110.756191,3.840172913,-13.47016989,-11.1768311,17.91965285,1
212.3375459,-2.669685762,-3.966487389,-16.9913,17.65119033,1
38.46679417,-1.343467963,-0.7350368882,-6.386544698,6.567582399,1
130.5203647,-0.4537299013,-10.9107477,-12.29937137,16.44763881,1
54.9,3.19,0.963,1.49,3.65,1
133.6521152,-12.08769164,17.83355049,24.30260232,32.47713491,1
269.8542275,-1.711360446,-4.375833708,-17.55547913,18.173374,1
63.84477658,0.2498668738,-0.4486124182,0.4977287373,0.7151366669,1
109.477817,3.081793136,7.674219698,1.88541276,8.482091616,1
150.4953043,1.040729688,4.953833022,1.87929131,5.399566253,1
34.6,-1.88,-4.35,2.88,5.54,1
41.6,-0.628,0.281,0.691,0.975,1
28.6,0.392,0.216,-0.443,0.63,1
251.4749205,-11.03195113,3.483034337,-4.067503302,12.26295466,1
270.6773321,-11.11076926,-6.337616951,-15.36202365,19.99015639,1
152.753776,7.122772883,-3.299098766,-4.783628175,9.192444981,1
67.07415187,4.049853482,11.03469932,-0.3028987078,11.75830132,1
39.37945208,-0.7153790608,-0.5722228494,0.4176765543,1.006806781,1
46.878574,-0.9999003352,0.3903928614,-4.40391233,4.532841391,1
58.6,-1.71,-8.39,-0.381,8.57,1
120.7508872,-3.72858962,-14.54637332,0.1791949403,15.01770515,1
8.34,0.858,-0.362,-1.16,1.49,1
272.9659673,-6.19198269,-5.478816508,-22.90768588,24.35405823,1
159.9494374,-1.201676784,2.936037253,-2.192952915,3.856602692,1
102.6256687,-2.268490608,-1.404690357,-22.81340771,22.9689089,1
13.86509808,-0.6907717846,0.8582408649,-0.9331068599,1.443756023,1
154.71112,0.7520365714,-10.4591497,-12.30340946,16.16580514,1
55.6,0.0955,-0.303,1.6,1.63,1
48.77316642,1.232513537,1.206648525,-5.307362697,5.580608307,1
28.6,-5.47,-1.46,2.11,6.04,1
47.50839758,-1.618352003,6.899741367,-4.191128059,8.23353196,1
218.5509179,-7.626836202,9.502066328,2.049777115,12.35554455,1
59.24453138,1.83426351,-4.46706986,-7.47972084,8.903115163,1
39.9,-0.118,0.25,0.551,0.617,1
51.12201967,2.286516259,-0.372903547,16.1619742,16.3271744,1
169.6981701,-0.7102080756,-0.7348856646,-0.1895725787,1.039418209,1
12.5,-1.46,-7.08,-8.64,11.3,1
50.1,3.24,2.55,0.477,4.15,1
187.5308042,3.168630136,-0.01911103964,-1.207563468,3.390986833,1
46.20347767,1.602072477,-4.588315677,8.225043785,9.553565944,1
192.573258,-6.813380331,-5.344974911,14.94777298,17.27503474,1
18.17766767,0.2628114032,-0.936228396,-2.547569879,2.726849048,1
4.49,-1.4,-4.75,-7.17,8.71,1
90.31177183,2.250969281,0.190311082,-1.132027967,2.526770335,1
1.97,-2.19,1.56,0.532,2.74,1
46.5,1.25,-0.114,0.331,1.3,1
64.3,-3.56,1.2,3.93,5.44,1
100.7923879,-4.060521727,6.913080035,-1.662655771,8.187975115,1
22.0,-0.919,1.27,-2.97,3.35,1
3.09,3.49,-2.91,2.22,5.06,1
4.959164917,1.003170244,-0.7032294238,0.843628673,1.487478235,1
15.86091433,-0.6380144043,0.3154909059,-0.30158535,0.7730139813,1
32.1,-0.184,0.143,0.284,0.368,1
229.9437982,43.26795507,-23.665754,12.07145977,50.77306362,1
236.0367433,-1.908581475,1.480748453,-5.515199638,6.02102369,1
136.5529998,-11.20232496,6.975311952,34.52326397,36.95947533,1
79.89028417,8.31473598,-11.31847522,38.14414759,40.64749329,1
186.6510113,-8.277014422,-7.384002505,2.815831947,11.44383547,1
13.47395854,-0.8277151832,-0.1618550223,0.8015895313,1.163552856,1
25.39290142,-1.104733018,20.41874837,4.779780707,20.99981009,1
35.9,2.18,-3.25,-5.52,6.76,1
177.4564867,-8.608746847,-1.776634084,4.534910426,9.891024391,1
68.64801121,0.9496193969,-3.220064583,-14.96713311,15.3390243,1
16.7,-0.22,-0.9,-0.108,0.933,1
89.06475108,5.45329809,-2.4948163,4.275427367,7.364906489,1
19.09032767,0.2756829156,0.8273017851,-6.595411919,6.652810511,1
132.6081987,-18.35013562,9.377649273,42.66096263,47.377479,1
132.9595167,-1.89376083,-9.27549023,-12.40404589,15.60389065,1
182.5857459,-8.533982009,11.67413796,7.926205457,16.49057546,1
206.1041084,-2.251160485,-1.696762726,4.040121376,4.926388942,1
53.03924417,6.993923639,-2.531961322,7.599730849,10.6339882,1
181.2021139,0.1030010426,-0.03635097027,0.07854199335,0.1345342058,1
226.3603069,8.327700427,1.907712725,13.07680196,15.62026606,1
11.45004129,-2.424978764,-3.102384106,-14.25246419,14.78641419,1
258.3408057,24.97192374,-0.9414373881,16.08881033,29.7209202,1
16.1,0.619,-0.484,-0.238,0.821,1
160.6433798,-1.153442371,-9.332498243,-7.306219919,11.90826613,1
160.12142,4.050245537,-3.821495152,-5.026120394,7.501346568,1
27.9,-1.11,-0.164,-1.52,1.89,1
65.77036621,-4.809899715,-19.0784379,0.03831534237,19.67545161,1
232.9049482,10.26597406,-5.005901892,30.73146624,32.78524508,1
191.4088838,-7.67865832,-9.70291994,-8.096352416,14.78713533,1
228.2574501,1.470231505,-2.205451046,-7.089739623,7.569015981,1
96.93110008,2.589994645,9.020110747,1.562198267,9.513723434,1
5.587834667,-3.709822689,-5.366413727,2.44787456,6.968017691,1
11.4,-0.171,-0.262,-1.79,1.82,1
94.72601004,2.289555057,-0.292939657,-1.138664557,2.573797384,1
43.5,2.76,2.0,5.96,6.86,1
41.10231217,3.583016169,-8.598142921,-0.7377285808,9.34399861,1
46.286853,-2.332424649,2.997275142,10.34086286,11.01622929,1
68.25758825,3.514062586,12.00230826,-6.095766757,13.91267091,1
23.4,-0.375,0.397,0.899,1.05,1
134.7452442,2.148745771,8.997065701,1.58432647,9.384795681,1
162.2694812,25.21714661,-7.227631586,27.27366381,37.84172141,1
66.53257933,1.081271796,-1.557996019,-7.736315374,7.965367277,1
24.69667054,13.33690132,-5.170492242,35.94135878,38.68317719,1
0.586,-2.54,2.89,-4.87,6.2,1
217.135593,18.19720169,-7.598004166,15.48123317,25.07062818,1
6.72,-0.0635,0.408,-0.212,0.464,1
226.1093625,1.352275624,-0.9513023718,-7.717156972,7.892283402,1
128.2618905,0.4944925958,-6.136851633,-2.336789449,6.585290868,1
177.3159587,2.079264916,-9.156709306,-13.55814008,16.49217482,1
35.78899479,5.583199832,4.009104236,0.8821396047,6.929877879,1
81.49608008,2.11890056,5.744430372,-2.768698711,6.719666096,1
20.89586017,-3.856981612,0.3578103485,-11.56210648,12.1937132,1
189.1905504,-0.6404291582,-4.217005497,-11.5331803,12.29664721,1
101.3139143,-2.800107323,-1.455512309,-0.1785134473,3.160851808,1
207.9912027,0.02007568404,1.339923965,0.3453184301,1.383851178,1
58.0,0.1,0.0434,0.197,0.225,1
236.6691265,0.4870137146,2.414429656,3.911010177,4.621975067,1
46.6,-0.0951,0.386,0.399,0.564,1
62.1,1.17,11.4,1.61,11.5,1
170.5105659,-0.4978559873,0.6879015326,-1.164519775,1.441240927,1
192.683673,0.2938361813,11.180019,15.15335055,18.83356572,1
73.76358696,0.2939665742,8.456108791,-0.4300035813,8.472136407,1
135.7299114,-4.918674883,-3.654910317,0.8500535935,6.186624536,1
21.2,-0.858,0.438,-0.718,1.2,1
216.683894,0.5911371303,-9.191806633,-8.392138497,12.46060756,1
23.0,3.4,7.76,5.45,10.1,1
140.0360681,-4.291825883,7.585626195,13.31518593,15.91400862,1
125.417784,-0.7545288008,-0.007094426751,-0.3100719988,0.8157871577,1
273.5582014,-2.795070823,1.407771255,-12.17941691,12.57507205,1
63.45848246,14.15373863,6.592514039,26.58577397,30.83168721,1
60.00548354,4.046662656,-3.923478487,5.848514904,8.122455827,1
16.1,1.6,-2.01,0.778,2.69,1
29.8,1.58,1.93,-1.06,2.71,1
129.0247525,0.6843513957,-11.14168231,-2.322903482,11.40181136,1
173.2085229,1.814206245,7.934286894,1.304241332,8.242893804,1
73.53291596,0.2617623031,2.774876879,-0.5077815628,2.833073122,1
65.13479246,-0.8610691631,-1.128658509,-1.953439559,2.41479528,1
40.44984917,-3.935403006,8.703957644,1.957664173,9.75083199,1
33.39318308,-5.137889922,1.712133155,3.462715262,6.428040897,1
186.8116153,6.820302849,5.608529971,13.36444053,16.01812755,1
20.86550192,-0.1407237331,-0.6075385702,1.211094017,1.362224285,1
46.2,1.27,4.15,-0.601,4.39,1
25.0,-4.55,-13.6,2.33,14.5,1
202.2094688,2.081317435,5.344255704,11.88769582,13.19887355,1
8.880577208,-0.2769208077,0.3413870546,-3.491472453,3.5190354,1
154.1188983,-2.414234944,-8.547327109,-16.4150721,18.66386678,1
219.7152983,3.940333963,6.326576239,18.59162679,20.02998716,1
98.33520275,-4.694289737,-15.05375025,17.69947968,23.70492214,1
155.233078,9.358190909,-5.104360233,-0.7963159275,10.68945039,1
51.46189967,-0.3357471228,-2.031715066,11.45985388,11.64340342,1
1.281566417,-3.227161641,-5.202704553,-13.62999768,14.94187216,1
256.4035018,-7.487556109,-16.94874397,-11.23633003,21.66976075,1
32.31912158,-5.528060589,17.05551413,4.377498118,18.45569033,1
187.5544047,-3.805734567,-1.511307756,5.176638835,6.600398197,1
179.6876437,1.781809162,12.7185033,-2.45107401,13.07451467,1
63.1,-0.686,0.432,-1.78,1.96,1
182.4552559,-2.396298317,-2.034970796,20.34493546,20.58639722,1
131.6762102,0.1829234905,0.1177535677,-0.08244106293,0.2326444389,1
5.67,0.858,6.6,-1.5,6.82,1
65.4,-0.0416,0.355,-0.468,0.589,1
152.4072249,-0.7764943781,9.632582613,1.139360375,9.73076222,1
40.47996217,-3.425276125,4.418419856,1.110420166,5.699823112,1
116.3672518,5.521523986,-4.591049251,-0.3328334552,7.188583898,1
3.78,-4.23,1.5,3.45,5.66,1
58.2,-7.25,8.08,-6.79,12.8,1
126.2543572,-0.9608109677,-10.08415021,-10.67063764,14.71311493,1
4.011875292,27.73678902,-7.68952537,32.45147852,43.37691464,1
6.029506667,23.32034026,-5.245414955,-7.85680427,25.16112122,1
155.7951877,8.360269418,-7.466860474,56.46334325,57.56524334,1
29.4,4.7,7.3,1.67,8.84,1
63.5,-0.056,1.29,0.458,1.37,1
99.86530658,2.859274421,0.6275486923,2.075753955,3.588596112,1
25.45889154,0.788530433,-0.4024229228,-1.058856495,1.380181702,1
115.564237,0.1097000514,-11.61223583,-16.84348122,20.45871244,1
26.7,1.43,-3.21,-1.18,3.71,1
111.9951951,-15.13396703,-35.08197712,-0.8284089553,38.21607435,1
171.8745881,-6.465273364,5.013501518,7.765685354,11.28010754,1
42.79670117,0.3724204208,-1.417149897,-2.81398832,3.172623688,1
216.894687,-7.911294472,5.09915738,-12.50826783,15.65396916,1
195.6347598,-1.6792949,3.793955936,11.51703848,12.24158112,1
55.45835883,1.115180823,-6.474600257,-10.01722532,11.97951919,1
52.3,0.206,-0.323,0.555,0.675,1
50.0,1.41,1.88,-0.516,2.4,1
146.4898062,-1.869811804,-8.834803712,-3.722869581,9.76778945,1
28.20354633,-2.673438505,10.8463184,-0.6165707642,11.18794243,1
151.5793706,6.484795462,-10.21256793,-2.87994082,12.43556091,1
59.0,0.0676,2.43,0.952,2.61,1
207.2082599,-0.2833951007,-2.162967808,-9.62026136,9.864490416,1
121.1251082,-2.526511717,-12.55673774,-13.22462425,18.41047557,1
158.5756197,8.417144115,-7.1918285,-3.478917897,11.60489474,1
215.0778524,9.343246011,-3.676182195,28.16239147,29.89867648,1
13.8,-0.164,0.286,-0.258,0.419,1
58.1,-2.01,-33.9,19.9,39.4,1
288.1432385,-6.896803726,-6.730253974,-15.73660447,18.45272176,1
14.3,0.332,-1.55,-1.7,2.33,1
27.95259658,4.160238388,-14.64559121,1.405326827,15.28973083,1
59.4,1.85,0.538,-0.342,1.96,1
48.7,0.491,-0.0114,-0.328,0.591,1
118.3638788,7.237931457,-3.608452435,-5.169159662,9.598374464,1
107.1309443,4.336717589,-13.31937955,-4.449772042,14.69739645,1
299.064465,10.57019066,-3.812116511,34.14646706,35.94777288,1
137.526652,-4.7224663,-1.070210034,6.771962163,8.325053093,1
251.8061685,2.499200834,-13.82573205,-11.34807149,18.06033217,1
214.4655494,-0.3940698829,-6.939728721,-6.3724915,9.429940281,1
21.5,1.39,4.18,0.894,4.5,1
114.30196,1.266376371,-0.9024230111,0.5940842,1.664635828,1
35.4,0.587,-0.826,0.378,1.08,1
178.614475,-0.07877193511,3.034540617,-2.170430317,3.731676504,1
1.050696292,-9.305499895,-20.31340961,-12.00104058,25.36241143,1
20.8,-0.454,0.0651,-0.105,0.47,1
8.920693208,-0.2841203747,0.1371663237,-3.323060364,3.33800377,1
190.0683017,0.6759851995,-1.833409671,-1.405462482,2.407004736,1
76.66201446,2.73668696,-4.22226916,-4.796937608,6.95180716,1
65.06452746,3.315835544,-0.3884319976,10.81271562,11.31638034,1
29.7,-1.28,4.29,7.41,8.66,1
237.2011305,-7.663398256,0.5622444297,-9.909133694,12.53932702,1
77.16002192,-1.226769817,2.2812371,-2.254028544,3.433606205,1
202.2496188,-1.177161455,2.500725203,1.976807372,3.398102856,1
26.6,-1.96,12.4,4.56,13.4,1
131.8654115,-5.701833406,-13.91561662,-9.273717354,17.66796886,1
27.59511817,1.104349733,-0.8079004312,-3.511987994,3.769131347,1
20.7,0.749,-2.06,1.46,2.64,1
291.6564988,4.436286024,0.2363939387,1.126448554,4.583165077,1
188.4435008,2.375587479,-5.171361138,5.08323015,7.63057145,1
57.7,0.454,-0.439,0.56,0.844,1
4.0,0.733,0.244,-2.56,2.68,1
11.66869821,2.028003546,1.783790491,10.64678802,10.98402485,1
166.1339843,0.9379726204,-1.027699606,-2.076359727,2.499445705,1
116.4683147,-0.7749159953,0.3807432014,0.7535055381,1.145962818,1
32.04809504,-0.9938117757,-0.2477859959,3.999189112,4.128265168,1
39.28918908,-0.05588687408,-0.4264470854,0.7816411704,0.8921565886,1
85.10989671,2.979223033,2.011459288,-7.585361316,8.394012428,1
52.3,-2.57,9.4,1.32,9.83,1
176.8592949,-1.560508714,-2.222220275,-1.146777715,2.947634564,1
32.98081321,-1.123256997,1.817226478,17.16956991,17.30196952,1
112.5769011,3.048805484,-9.424631066,3.392377936,10.47029673,1
30.2,0.151,0.291,-0.132,0.353,1
233.1860072,1.609029056,0.2798528574,3.849680486,4.181785739,1
52.8,1.74,-4.18,1.17,4.68,1
303.7019762,-2.732061228,-4.815040587,-14.54938463,15.56706034,1
255.1186564,2.851028093,4.719362597,19.46602878,20.23183187,1
5.53,3.68,11.8,2.01,12.5,1
198.3750567,-0.7416178563,-12.04530167,-10.87667247,16.24627013,1
51.13205767,1.33352258,-0.6457267356,12.65985573,12.7462619,1
271.3599071,25.90721629,-6.595157565,49.10688639,55.91212972,1
29.85169671,-1.872551517,-5.062743845,-5.439840723,7.663529964,1
12.0,-0.181,-0.083,-0.405,0.451,1
291.6263848,-1.416763103,-1.808301142,-8.818063719,9.112377212,1
229.7932312,-2.433298913,-14.44358628,-11.17412033,18.42278734,1
41.7,-0.153,-0.284,-0.904,0.96,1
168.4845912,1.079303477,10.53828942,1.303378283,10.67329541,1
247.4095975,-19.10880132,-0.2353444366,-7.772840007,20.63052876,1
271.1691881,-3.024384588,1.782873063,-14.06102167,14.49268329,1
70.04326029,-0.1449266021,1.369196589,-0.7476056975,1.566721832,1
176.1271341,0.1447410626,6.943471524,-0.8138938272,6.992508129,1
34.8,-2.02,-4.27,-9.19,10.3,1
4.95,0.446,0.0656,-2.8,2.84,1
60.6,0.27,-8.22,0.924,8.28,1
50.20825404,-0.06329742506,-2.869689481,-3.744131227,4.717800645,1
178.313587,0.5324272844,-0.7574448073,0.024373552,0.9261725106,1
53.0,0.584,0.00192,1.86,1.95,1
215.7102302,-9.958537989,7.624419547,-0.6601056236,12.55945826,1
63.68935146,1.213468425,-7.962178697,-8.331556081,11.58808103,1
63.74957846,2.298348977,-8.027737094,-10.84739897,13.68915758,1
18.81953867,0.5198992594,4.721367608,9.826295021,10.91410469,1
172.7688889,-0.6212847894,-6.680428095,-7.121388263,9.784083254,1
223.4593877,1.156140715,4.070485674,-0.9208206904,4.330522569,1
91.92549446,-5.71341791,-0.5276027468,-11.73110738,13.05911135,1
14.9,1.01,0.462,1.69,2.03,1
171.7542331,16.61965215,7.104067056,-58.09918369,60.84567159,1
300.2489371,-3.933325783,-6.23904459,-17.11449148,18.63605505,1
12.1,-0.173,0.0367,-0.175,0.249,1
39.2,-2.72,-6.85,2.09,7.66,1
271.6710813,3.074181815,4.152763892,-2.734695398,5.845904609,1
178.3799535,-2.405067679,-5.24804094,-1.127675884,5.882001117,1
74.79111567,-5.442401218,0.1407471585,-12.21619005,13.3744099,1
3.64,-1.6,-9.19,0.438,9.33,1
54.30400992,-0.9143671185,3.658836722,7.284137909,8.20254951,1
168.5129123,-4.374499665,-3.88757746,7.850231414,9.791610648,1
290.3013845,-3.931844975,-5.358370298,-15.9913583,17.31747896,1
146.2995642,7.029983418,9.8493962,23.19422517,26.16110383,1
173.8128072,-3.856188437,2.112568464,6.27603583,7.663012496,1
145.6473271,0.9263989341,-0.4233898687,-0.9060634875,1.363240628,1
46.7,-0.897,-0.322,0.711,1.19,1
177.1453178,-6.733523737,-9.019723077,-2.235939597,11.4758517,1
88.17139658,5.550242586,-0.6934902283,2.399377461,6.086307063,1
39.02843008,-0.5396273996,0.1063134903,0.3475737011,0.650621062,1
59.5,2.27,2.42,-1.49,3.64,1
128.91809,-2.554426909,-2.321879927,-4.28335473,5.50121359,1
167.0373744,-0.7234655408,-2.185572997,-0.7790935385,2.43045643,1
223.9110877,-1.148997756,-11.81795374,-14.45356163,18.70533801,1
191.3821854,2.782390259,11.49146509,-0.5506410688,11.83632845,1
33.6,-0.0189,-0.0123,-0.073,0.0764,1
255.7410032,51.66132441,7.43485457,31.75118557,61.09261238,1
37.0,2.21,-1.84,-2.28,3.67,1
238.8172185,28.73366444,-13.57000174,72.24511863,78.92480969,1
42.2,-0.455,0.829,0.0606,0.947,1
20.3,-0.588,0.313,-0.0837,0.671,1
14.4,1.16,10.8,-1.49,11.0,1
200.9547527,-10.01667568,0.4861291405,36.78968686,38.13202293,1
91.97568346,-4.292307694,0.6310698125,-6.82457424,8.086839185,1
194.731365,-3.338431524,-6.204903867,-11.46386858,13.4560856,1
251.10352,2.022007811,-4.156612237,-11.13981121,12.06073524,1
209.1355055,-8.533977331,-1.579910068,-17.05490718,19.13621551,1
280.5847133,1.931079076,-12.5386944,-8.713068191,15.39043472,1
10.8,-4.88,-31.4,-1.79,31.8,1
74.35530746,4.031325994,-0.1247571433,-4.185117706,5.812259787,1
177.6315745,-0.3725220162,0.7212604827,2.854611851,2.967793483,1
38.69321379,3.921750342,-16.81528478,2.361552992,17.42730216,1
2.29,0.167,-1.05,-1.95,2.23,1
70.15367529,1.04766624,-0.1535548997,-12.19692698,12.24280244,1
14.8,-3.18,-3.84,-8.36,9.74,1
116.2568368,7.313872755,-2.382769468,52.61888316,53.17816459,1
12.35068521,0.2758362588,-3.351522855,-3.54240638,4.884407236,1
37.83999083,1.033579566,-7.043326764,0.3599616488,7.127854587,1
71.095834,-1.055657264,11.11017518,0.7641036165,11.18634252,1
231.9413199,-2.648921715,-7.881528051,-15.20058553,17.32608066,1
54.4,-0.365,0.956,-0.264,1.06,1
23.1,0.779,0.585,0.587,1.14,1
40.6,-1.91,-0.779,0.29,2.09,1
279.6311156,-18.6247653,10.92027399,35.62557405,41.65712176,1
52.1,2.64,-7.91,1.45,8.47,1
71.35820654,-0.7797750315,0.6960700929,-12.70090084,12.74383949,1
111.2730782,7.271329583,3.908499382,3.510612144,8.970674387,1
270.7074461,-12.05273932,-6.493980854,-17.12528661,21.92523099,1
8.769881667,-8.598797225,-1.947360794,-2.265241749,9.102903271,1
42.7,-5.24,-20.9,3.66,21.8,1
53.3,-0.868,-0.157,4.04,4.14,1
93.70216621,-4.158875695,0.6822472751,-2.957286034,5.148519115,1
94.12374921,1.784893861,0.08070765585,-3.428631842,3.866248327,1
106.9504153,-3.770890424,-31.40931758,3.228977202,31.79923174,1
178.1892377,-6.614743398,10.607538,20.73810224,24.21453235,1
13.14299354,-0.8305130759,-1.543368771,-4.82677478,5.135123553,1
79.19768117,2.811923084,-1.424717071,-6.470990771,7.197947744,1
188.2670817,-0.6661991532,6.286521642,18.28460119,19.34659703,1
6.68,-0.122,0.0891,-0.595,0.613,1
244.3380215,-2.309003334,-2.302703691,-6.989751651,7.713012954,1
63.9,-0.626,-1.66,0.178,1.78,1
61.74869433,0.1982510161,0.4959541073,-0.5517087704,0.7678909488,1
127.0172192,5.866434866,5.361828926,22.46139597,23.82600631,1
41.01197117,19.02560246,-59.37276807,-2.042200293,62.38004264,1
224.2624107,-8.985267774,-3.96670549,-8.54514142,13.01880299,1
47.1,5.13,4.36,7.73,10.2,1
165.9131553,0.7548325637,-1.097529687,-2.498169093,2.831111519,1
184.4717681,0.4394659111,-0.07659618616,0.5360703921,0.697401411,1
94.94529858,-0.1386453038,0.05225948989,0.516181819,0.5370262981,1
182.3548789,-0.6865844473,-8.480288197,-7.484380487,11.33148875,1
15.1,-0.591,-0.441,-2.07,2.2,1
20.13336846,-0.8991283974,-2.082949831,-3.861668447,4.47879393,1
286.005169,1.417526165,-4.529970405,-12.58036283,13.44602325,1
43.98511167,0.07380399451,-0.3388689512,-0.1975493503,0.3991302312,1
50.9,-0.876,-0.46,-1.85,2.1,1
26.0,3.11,-1.41,-2.94,4.51,1
9.903556458,-1.292889547,-1.615655559,-6.626533139,6.942106864,1
104.984524,21.52619698,-30.02339416,17.94980132,41.07282216,1
0.836,2.29,3.28,5.58,6.87,1
16.77357442,1.664408912,3.300234295,9.978440741,10.64100949,1
259.0233792,-5.101340731,-3.445523279,-5.419435109,8.201559902,1
37.0,0.153,0.359,-0.0919,0.401,1
89.679929,0.8346169442,9.566835936,7.001378839,11.88445375,1
93.20028121,1.050110376,0.9871982825,-0.6815298218,1.594294561,1
0.9174080417,-1.542073613,-0.6542945145,16.72305314,16.80674265,1
176.1114361,-2.472692775,-7.503786811,-9.524600912,12.37493631,1
107.8129423,3.609314314,-22.74233831,-0.9427161741,23.04625383,1
200.1617712,5.466995192,-4.458588181,-4.249158751,8.235435331,1
80.08196446,-2.26892418,-0.8511598867,-0.9181678087,2.591432463,1
144.1816182,-4.168029803,-6.603239586,0.327711879,7.815538404,1
29.4,-0.128,-0.263,-0.333,0.443,1
116.1072557,-0.5094961126,0.7766260135,1.310205492,1.606042554,1
63.3,0.944,0.41,0.491,1.14,1
35.52823542,-1.6388807,3.458474277,-3.255651907,5.024564022,1
132.298041,0.1420009477,0.7857184339,-0.1344333716,0.8096851597,1
118.4641728,-2.408975519,2.855966651,-0.4144246253,3.759182934,1
124.206673,19.79921014,-0.1803909883,66.01856369,68.92381312,1
285.975055,1.833124619,-2.682923566,-10.73826887,11.21912845,1
135.3670739,-0.4318513745,3.850169898,-9.383707573,10.15205751,1
70.35443067,28.8347745,-15.31661066,30.33481218,44.56729308,1
71.015601,-0.9955819472,-2.144402021,-3.208100595,3.985166605,1
43.18783925,3.198624013,4.6031372,8.79726985,10.43130023,1
149.7926685,2.331523301,-21.50806593,-9.275895442,23.53880068,1
177.6773157,-5.549912803,-1.393676834,7.049092703,9.07929376,1
31.2,-1.55,-14.6,-1.72,14.7,1
35.7,1.37,12.1,4.62,13.0,1
79.02704054,1.436710441,1.246970486,7.860594435,8.087522312,1
29.10953229,-0.6378948288,1.242165244,10.5703462,10.66218097,1
33.8,0.386,0.393,-0.638,0.843,1
44.7,-0.896,0.524,-1.11,1.52,1
278.0752443,-5.72832831,0.07317505337,2.019107884,6.074199244,1
11.87163929,-1.277380393,-4.052689381,-16.10791553,16.65895959,1
156.3588611,4.520786768,-4.782339449,4.217742831,7.816497822,1
152.583136,-0.1921278119,-10.51450763,-16.02160828,19.16464755,1
156.5494221,-2.708334104,-0.3926656741,-1.020634854,2.920779939,1
48.17089542,9.051556488,-6.631400946,-19.98347228,22.91823112,1
232.3930202,-1.8724986,-4.321496702,-11.07335877,12.03332287,1
35.4,-0.379,-0.299,-1.11,1.21,1
61.38764733,-0.5485962975,-0.3096882753,1.198338901,1.353839299,1
16.8,0.99,-0.24,3.13,3.3,1
12.2,0.032,0.569,-0.401,0.697,1
270.4966511,11.50866526,6.293702023,7.065688856,14.89912817,1
41.17197792,-0.598992024,-0.6283757079,1.389035899,1.638007388,1
36.5,1.7,-0.519,-0.597,1.87,1
7.35,1.42,9.98,-4.67,11.1,1
5.9,1.75,-0.126,-0.311,1.78,1
223.3389347,6.705919032,1.35337987,17.70483105,18.98056979,1
31.42628333,0.08019297296,-1.032798671,-1.309268768,1.669517509,1
38.8,-1.53,-1.96,-2.3,3.39,1
193.7291235,-0.165234713,0.4631532741,-0.4157832259,0.6439636299,1
31.9,-0.902,-0.224,-0.923,1.31,1
288.4343375,1.454210865,-3.48892219,-9.388464868,10.12079937,1
91.48519575,4.689838836,-0.02033661604,-0.06340494074,4.690311511,1
6.07,-3.32,-6.73,0.82,7.55,1
97.19528171,-0.4508732076,-1.433300783,3.408104607,3.724622772,1
23.40537092,3.0084825,4.042253271,0.4520459032,5.059162377,1
11.28758758,-0.720679708,-1.305930008,-4.939409695,5.159709348,1
7.97,1.23,3.8,-1.95,4.44,1
67.33306496,-6.413310328,3.746083904,-6.306806803,9.743690575,1
102.758139,-1.918944642,6.258229889,3.457724956,7.402948855,1
293.142107,0.06363596058,-2.30569308,-12.13440505,12.35168231,1
48.20242554,2.189968496,-2.384928991,-6.417950678,7.188458751,1
125.4011557,6.224317793,-3.677125643,4.814524278,8.685794667,1
225.9387195,-10.50612623,-4.348474293,-13.01543193,17.28263247,1
180.9797146,-0.2183353248,-10.55025984,-9.713446097,14.34247845,1
152.2318186,-1.135255776,-9.328458402,-17.76308803,20.0956771,1
109.1601988,16.97078797,-13.25269907,16.77087868,27.29293038,1
28.1,4.02,11.4,-0.303,12.1,1
86.58543929,1.719323769,0.365245339,-9.444232103,9.60640403,1
26.8,4.76,0.256,0.578,4.8,1
37.3,1.75,10.2,6.28,12.1,1
61.22319142,0.2906532495,-0.1476927736,0.2767031085,0.4276179102,1
241.2162568,-5.562059809,-7.485097355,-4.685669187,10.43641162,1
297.7595383,10.65105064,-3.063689279,2.18120849,11.29551867,1
112.4224445,-4.413062053,-9.341188375,-23.78209956,25.92915688,1
231.9915089,-2.187757079,-8.389966257,-12.21244783,14.97737283,1
56.2,-1.82,2.06,1.6,3.18,1
111.9049302,2.797137229,8.406534342,3.51790947,9.532548629,1
184.9030421,-3.167854502,6.240397636,-1.479241041,7.153042629,1
211.0727898,-2.606933151,0.4877396464,-10.34235624,10.67699972,1
296.4144609,-3.206231241,-7.990312575,-13.92037743,16.36770972,1
28.23698917,-0.2476854238,-0.2684667206,-1.079894192,1.139997331,1
276.1379348,-2.392808699,-4.423306375,-8.746790253,10.08947533,1
104.843997,2.704468217,-7.812718018,-20.01415379,21.65453909,1
62.540993,2.187517635,-29.95690196,1.86869177,30.09473737,1
29.9,0.496,-0.534,1.81,1.95,1
21.6,-2.93,-5.87,1.76,6.79,1
39.0,-8.01,11.9,13.8,19.9,1
123.4086942,-2.512112071,-1.317075093,-3.341179715,4.382793145,1
156.3673347,8.895161596,1.556592103,9.009754159,12.75627488,1
46.738166,-1.58061802,-0.8308004665,-2.8148502,3.333461322,1
207.1580709,-2.142976324,0.1579968102,-2.387014108,3.211720235,1
54.10325367,-1.187633087,-1.938888178,-6.568543378,6.950936759,1
133.0297807,-2.333855901,-9.572641051,-10.91628034,14.70535673,1
32.49980458,0.9336032885,-1.693762958,4.15497414,4.583040275,1
206.6361089,-0.6459771426,-6.236993387,26.67805473,27.40503562,1
56.0,-0.13,-0.125,-0.269,0.324,1
6.914854292,0.0781409109,0.5604676071,-1.065849765,1.206758328,1
141.0337491,0.2292465947,1.520435114,-0.1403875548,1.544016063,1
72.49991387,-1.60947856,0.9804751539,-0.9235530943,2.09873845,1
71.497,-0.7155249488,-5.019503101,-3.481984469,6.150740051,1
47.90154867,-4.861001164,-3.055400851,-5.32699063,7.832090133,1
0.416,0.538,-0.614,11.2,11.3,1
36.8,0.308,-0.44,0.136,0.554,1
182.8768389,0.1657671019,-9.159692556,-8.129101501,12.24784625,1
36.67559167,-3.782256534,7.192783935,1.496339908,8.26320993,1
225.2461129,26.56856445,1.141330887,16.76728616,31.43776611,1
55.93490467,-0.7521948847,-0.4094039136,-0.8074542886,1.177026396,1
94.54412537,-0.4212755886,2.967808684,-0.6095359059,3.058904301,1
86.48506229,2.203424108,-5.58614449,20.9298301,21.774248,1
156.7399831,-0.6803929038,0.7562186462,-1.45922763,1.778804773,1
227.9362401,-5.702900523,-8.397062438,-14.13908902,17.40538912,1
118.5744968,2.678981373,2.165923283,0.4854004678,3.479048502,1
59.4,0.262,-1.44,-1.75,2.28,1
18.7,0.331,0.438,-0.681,0.875,1
44.42142788,-0.8568889155,-0.5296545348,-6.220060435,6.301106598,1
60.4,3.25,4.3,1.54,5.61,1
52.89871417,1.470687003,-5.964878588,-7.428189914,9.639538486,1
256.9756588,-4.026319608,-12.07580425,-7.956870595,15.01159843,1
124.005919,-9.40194387,-16.8032629,-20.38908661,28.04391281,1
227.5246911,0.878917058,-6.193372573,0.6874916428,6.293091751,1
62.3,-2.94,-35.3,6.09,36.0,1
109.6219327,1.18964051,-4.610091293,23.13256278,23.6174437,1
1.612816417,1.087580357,0.1474057484,-7.005530947,7.090981832,1
14.8,-4.86,-3.58,-6.94,9.2,1
79.71964317,-3.014506887,-4.017421315,-12.82735974,13.7756337,1
22.65251796,-7.053410872,-13.58905782,2.741677558,15.5540957,1
8.81,1.0,-0.55,-0.49,1.24,1
144.542974,-19.76904319,2.783214424,57.20252486,60.58622122,1
51.78451629,-4.178168875,-5.017923768,-13.69721844,15.17400564,1
51.46330529,4.223845569,-5.546862895,13.64315392,15.32136443,1
77.04312196,2.539788989,11.10170139,3.587559164,11.94022122,1
182.4050669,-2.418243502,-7.634348704,1.993778915,8.252656308,1
107.6625013,6.032999235,8.879327336,4.856220188,11.78229215,1
28.1,2.41,0.377,-0.928,2.61,1
15.42511471,1.036262269,2.917018014,18.40074561,18.65932133,1
242.782159,43.5930322,-10.61537677,46.64305215,64.7194947,1
40.1,0.347,0.133,0.185,0.415,1
7.31,-1.41,-1.76,-1.91,2.95,1
96.53279471,2.148106525,-0.7991483188,1.294014552,2.632009372,1
25.53912554,-0.410611656,-0.3994870359,-1.704756308,1.79843985,1
160.8642078,2.639322048,-8.955961529,-9.798958118,13.53494913,1
207.7804107,-3.465251784,-1.690706618,-16.89906836,17.3333485,1
32.5,1.59,10.4,7.8,13.1,1
244.4283611,-1.686184528,-6.536155651,-14.93150602,16.38640965,1
14.9,0.068,0.385,-2.24,2.28,1
99.88974762,0.1916824003,2.610517202,-0.01778430641,2.617605487,1
136.8742048,-4.882852794,-7.440904684,-5.263095181,10.33970429,1
54.1,-1.42,-0.975,-0.766,1.88,1
120.8010342,1.129933641,-5.987024918,-0.6203041383,6.124213796,1
35.1,-0.376,-0.464,1.42,1.54,1
38.3,0.0631,0.56,-0.103,0.573,1
209.0853165,-3.320171547,-4.375465918,-14.81631237,15.80162502,1
30.6,-1.55,-4.82,-0.616,5.1,1
85.93298892,3.908075751,2.079964243,-11.47650909,12.30079543,1
5.209894917,-0.3236606357,-0.7777805462,-3.212289541,3.320918981,1
201.2859977,3.361284489,4.325978885,-26.19999573,26.76662293,1
104.5333351,0.5288958585,8.530665468,-15.01795477,17.27978442,1
290.3515735,3.825767713,-4.066166044,-12.62569746,13.80501508,1
0.655,5.93,3.4,-1.39,6.98,1
13.5,7.92,-19.3,-2.82,21.1,1
9.422355458,23.33453964,-34.24930321,37.42629895,55.84123354,1
45.0332065,-1.395425152,-0.3326212013,4.035749413,4.283120538,1
35.2,1.18,0.529,-2.7,3.0,1
109.7323467,0.6066260391,-1.922956562,3.74461713,4.252988895,1
4.433469708,39.7135543,-1.710402672,33.35650354,51.89169684,1
24.8,-9.34,-6.34,-7.34,13.5,1
4.628201917,-2.840027726,1.94770578,-2.304061414,4.143430256,1
67.32487987,1.579581893,9.719871603,2.306982537,10.11400768,1
129.9582549,-2.030466978,-9.188219367,-22.49029058,24.37948608,1
281.718995,3.901466644,-3.659906178,-14.81498505,15.75119479,1
1.94,-5.14,0.344,2.74,5.84,1
105.275616,-19.0619546,-13.56584203,-25.90971422,34.90993375,1
54.33412292,1.029753441,4.47081851,10.4791039,11.43941558,1
57.1,-0.725,4.79,-4.3,6.48,1
0.4584632918,0.8657798262,0.6728206864,2.252418805,2.505125318,1
24.19521133,-1.615464501,-2.999764302,-17.72895199,18.05336672,1
13.2,-1.55,9.96,-4.69,11.1,1
2.696906833,48.74100038,1.505538455,-16.05061866,51.337843,1
43.33827625,1.489082197,0.3387888443,10.21571491,10.32922914,1
25.69404242,0.5066068572,-0.2057062161,1.228725711,1.344891233,1
137.5735673,0.7341146361,9.66815298,1.156999159,9.764771037,1
90.41984117,-0.5155539742,0.5947776067,-4.074367349,4.149701868,1
11.7,1.72,1.81,2.52,3.55,1
61.2,0.231,0.379,0.073,0.45,1
23.45556092,-4.452169693,-17.26072567,-3.499608854,18.16594968,1
157.4821692,-5.538503131,1.909739224,0.3169623578,5.867076442,1
36.00963779,1.498023029,-0.8351677519,1.009940443,1.990366264,1
44.02526267,0.008882359117,-0.1156456465,-0.1120864463,0.1612953294,1
166.5455284,-0.4587491512,-0.6168711649,2.383712186,2.504608672,1
215.7604192,-1.733405618,4.672164457,11.41283525,12.45337802,1
38.7,-3.05,-4.83,-0.238,5.72,1
294.0354793,-4.075048257,-7.793753158,-17.38337219,19.48153575,1
43.79439267,0.3105079088,-0.1535127997,-0.1494881612,0.3772639016,1
150.4350783,-1.513875561,-10.70627291,-3.200180542,11.27640254,1
27.1,0.619,1.81,0.176,1.92,1
280.8055463,1.088785761,-1.304071763,1.438822017,2.226267367,1
141.8561709,-1.517653009,-7.80538444,4.069541057,8.932438711,1
17.6,1.65,6.23,-1.95,6.73,1
172.9176649,-0.2850820224,1.783382648,0.3119189881,1.832762637,1
40.3,0.431,0.183,-0.0291,0.469,1
109.0967,3.579458431,-16.69001286,-8.619032099,19.12215381,1
49.2,-2.03,-9.72,-1.24,10.0,1
54.6,-2.42,-3.97,-8.64,9.81,1
146.8315592,6.145987322,10.17742968,12.34485452,17.13909765,1
179.7350417,-0.7999031943,-8.742183232,-10.33132722,13.55735723,1
20.81535492,-0.1264297028,-0.547732079,-2.189119188,2.260141084,1
26.9,0.603,0.134,-0.199,0.649,1
40.73069013,-0.4256541665,-1.214969844,1.108135659,1.698616446,1
81.63684817,2.797206519,-4.113883417,-7.483640229,8.986282443,1
124.8962471,0.2794628116,0.1359091723,0.5453446609,0.6276715426,1
120.2092972,2.810842811,1.545862901,6.407785878,7.165908824,1
25.6,1.33,4.24,-0.0925,4.45,1
75.65909733,1.711816967,7.194793623,-6.511218445,9.853493708,1
41.19265417,-3.605359842,15.53288981,2.544484888,16.14755984,1
3.389523292,-12.92293833,-17.61733683,-5.947075571,22.64377618,1
50.6,2.37,0.302,2.84,3.71,1
72.00848587,-2.185426086,-4.397322518,0.1418440962,4.912499593,1
154.520404,1.652439516,-12.41929192,-15.71171287,20.09545445,1
20.1,-5.92,-1.27,2.2,6.44,1
50.3,-2.78,-8.01,-0.373,8.49,1
181.5920142,-2.378944366,-8.666534879,-6.477498722,11.07818545,1
40.89151717,-3.552628774,8.061793032,-0.06265759349,8.810085362,1
84.86899171,0.9043341735,0.8522496615,-15.82060557,15.86933239,1
225.4970575,-1.240703148,-2.78216748,-10.88985209,11.30790338,1
244.2175675,4.885404226,-1.216247607,28.99780189,29.43159776,1
41.1,0.469,-0.262,-4.42,4.46,1
127.8001576,-2.235968687,-6.263421047,3.121985727,7.346890095,1
58.843364,-0.1806072987,-1.891412296,1.54400524,2.448267071,1
220.8395282,2.172484151,-3.252706372,3.592602972,5.310986937,1
267.505367,-4.581940166,-1.758032921,-13.8505336,14.69428925,1
122.2352467,1.175492514,-0.7050882536,-0.2253260366,1.389137833,1
60.1,-3.07,1.65,-0.537,3.53,1
183.0776514,6.807641873,4.189399622,10.75732027,13.40205195,1
57.4,0.918,-3.89,0.845,4.08,1
25.8,2.79,-3.76,0.769,4.75,1
57.38913417,-0.7051201209,0.1151783443,-2.500208017,2.600288554,1
224.0917687,42.5959416,0.8850018167,51.10273288,66.53335086,1
74.24498646,2.893122198,2.636775878,1.709822921,4.271561483,1
144.5942271,2.852831374,4.210386449,0.6525831807,5.127559429,1
17.9,1.89,0.69,0.106,2.01,1
172.8793029,-2.64315636,-4.855574071,-9.497359319,10.98920876,1
22.6,-0.374,-0.369,-0.716,0.888,1
69.58152329,8.754435487,-2.223156268,17.54796195,19.73609721,1
149.8227815,0.7577569024,-21.94516869,-10.76903108,24.45683248,1
44.49163188,-0.3337166771,-3.256238091,-3.831562303,5.039377244,1
40.1,-0.713,-0.21,0.608,0.96,1
59.4,-0.523,-0.146,0.879,1.03,1
98.51021817,0.02507256836,2.309274353,3.454442037,4.155303413,1
234.0191442,-0.2956234559,0.1228308512,0.4468442202,0.5496820925,1
61.7,1.42,1.15,0.00271,1.82,1
20.5,-0.804,-0.219,0.371,0.912,1
115.3650781,-4.32027785,-7.499890226,-13.13173655,15.7275446,1
20.3,-0.594,0.35,-0.106,0.697,1
49.44603817,3.430040436,1.478346271,1.210124549,3.926205104,1
45.9,1.41,9.42,-2.04,9.74,1
153.9482573,5.063602801,-4.296398114,-1.440804223,6.795220886,1
1.703157417,-0.8139948379,-9.025945684,-22.20145683,23.97988675,1
174.1139372,0.9661585388,-9.451830559,-8.391976529,12.67658603,1
39.8,-0.232,-0.716,0.312,0.815,1
134.7251852,2.35639224,6.239834549,2.027566466,6.971308727,1
31.3,1.91,2.83,5.73,6.67,1
60.2,-5.12,-15.7,0.0511,16.5,1
40.9,-1.25,2.27,-0.332,2.61,1
75.03728933,-2.474070671,9.713962991,3.420234071,10.59151093,1
28.2,-0.253,-0.165,-0.421,0.518,1
55.5,4.7,-1.03,3.14,5.75,1
161.8177863,25.12130841,-10.89383639,26.47267245,38.08619427,1
56.7,-5.66,-5.06,-7.46,10.6,1
305.3682689,-5.841380716,-6.304617605,-18.07113222,20.01089082,1
15.4,-1.85,-0.228,0.712,1.99,1
77.61172029,2.716535701,-1.757809119,-8.838092186,9.411765648,1
9.67,-1.63,-0.423,-1.15,2.04,1
0.4283502917,1.222817831,-0.2014155293,-0.06021579623,1.240756868,1
86.87653229,3.470285068,-1.127452228,19.29692496,19.63887319,1
45.6,1.01,-0.411,2.61,2.83,1
165.3108953,-1.330077547,-2.486225278,-3.144805071,4.223768619,1
13.6,0.132,0.277,1.32,1.36,1
34.75598542,-1.546225428,1.050849464,9.867999701,10.04353104,1
271.7413463,-8.555850011,-1.785397013,-8.907672299,12.47945663,1
125.608345,0.1966228224,-0.08082986265,-0.367301622,0.4243871847,1
286.6877448,3.27859492,-0.06374809921,3.120519245,4.526686297,1
126.8219182,-0.7907322751,2.190953898,6.042656497,6.476050807,1
105.757425,17.52949644,-22.19637911,66.0375648,71.83956052,1
120.3697682,0.6080510786,-1.525382443,-0.6145388567,1.753332746,1
52.83848717,2.530396899,-4.123188676,-8.104036826,9.438167524,1
107.3515903,-0.5520069784,11.80958754,-12.40385176,17.13553641,1
102.9769877,-6.183558022,-3.796442464,-28.5434592,29.45128907,1
148.0042645,-2.178761284,-7.197633031,-2.448577688,7.908758099,1
32.1,-0.331,0.0787,-0.0661,0.347,1
53.7,-0.277,-0.303,-1.56,1.62,1
61.45785033,0.06895621419,-0.1637569023,-0.1333720654,0.2221697332,1
221.1607372,-0.6493819032,-0.836215573,5.826130593,5.921549715,1
119.1175735,4.794958617,-8.099844958,-5.043934522,10.67896961,1
11.1,4.77,4.44,6.22,9.01,1
84.25411158,0.2254207615,4.615324259,6.214826007,7.744423467,1
35.3,0.647,-0.246,-0.112,0.702,1
97.30569567,0.2240433767,2.434702684,0.03399512708,2.445225605,1
198.5557357,-3.53463046,3.796784234,51.9143077,52.17283323,1
293.4833953,2.822657695,-5.461753163,-7.417817538,9.634425831,1
40.93127413,0.2318243032,2.608342623,10.79683926,11.10985742,1
260.3684514,1.490740614,0.8016339701,1.433458951,2.218046249,1
0.575,6.75,1.52,6.32,9.37,1
45.16957804,-2.227497388,-4.617929778,-13.2291652,14.18794671,1
129.9682929,-1.988211489,-9.458946036,-21.23453786,23.33088604,1
191.1980912,-1.38354858,-5.594775565,0.8426884407,5.824589608,1
47.7,-13.9,-47.7,16.8,52.5,1
183.3486101,-2.464568361,-6.675259742,-1.391657206,7.250510299,1
66.36943804,-4.445373766,-1.603219408,-0.5093556333,4.753009947,1
2.21,-5.0,2.93,1.03,5.89,1
9.27,4.25,5.61,1.24,7.14,1
43.4,0.537,-0.471,-1.11,1.32,1
55.57881183,1.592207786,1.354576211,6.216368503,6.558447965,1
107.9958284,5.327349649,-8.041701415,-5.961362658,11.33964112,1
100.0000709,-0.02167314336,-8.951174414,5.184658876,10.34430668,1
63.2,-1.25,-0.427,-0.147,1.33,1
191.6799018,-2.499351692,-2.204864278,3.853319208,5.094728087,1
15.1,2.63,11.2,-4.96,12.5,1
287.5008145,3.517418888,-3.553850842,3.158056616,5.91400144,1
21.3,2.0,0.29,0.148,2.03,1
154.9948437,-1.481968767,-15.87569687,10.92101775,19.32621564,1
159.0373527,13.10871373,-3.656403111,-1.224285336,13.66405993,1
40.48999012,2.579378148,1.330553071,-2.073352504,3.566840858,1
304.0934542,-2.277696319,-4.467230951,-10.43573627,11.57793783,1
27.7,4.79,-4.94,-1.89,7.13,1
79.43858617,3.148444963,-2.495210987,12.64454538,13.26737771,1
67.20452987,3.483766408,10.03175448,3.701672547,11.24611515,1
43.1,-1.26,-0.701,-1.29,1.93,1
87.64399108,-2.987734825,-16.35204731,15.85817861,22.97385121,1
0.6365920417,-1.103495163,0.2143828994,1.099795775,1.572645017,1
126.1298802,0.1619074463,-0.06097447246,-0.1891176653,0.2563150381,1
25.85003292,0.6446936788,-0.1272757584,-0.2536656636,0.7043971373,1
111.2831082,7.22462027,5.572902886,-10.27346552,13.74032308,1
111.1727842,-0.892841325,5.358307732,-9.429241011,10.88205925,1
142.0066129,1.582332277,-4.955570814,2.960572169,5.985519618,1
239.389373,-1.585811955,-3.648687125,-15.97307289,16.46106846,1
195.7149943,1.686193737,-0.06838552594,-1.878873526,2.525488394,1
27.85221658,-2.289985996,18.46731499,5.348259877,19.3620671,1
3.610357292,28.80412105,-0.333000247,10.70627174,30.73129567,1
24.3,0.334,-0.435,-1.02,1.16,1
52.96627625,0.05426873937,0.02760996759,-2.913474017,2.914110199,1
233.0655532,-2.045170094,-3.103519928,-13.69053507,14.18609556,1
6.44,-3.49,-5.28,4.59,7.82,1
228.8697546,11.04382565,4.170571295,30.91084011,33.0883633,1
181.4314102,-4.086776602,-3.64676573,5.225613944,7.570183906,1
231.1081824,2.681743598,-6.952673872,-11.75797651,13.92054001,1
16.97415942,3.450115682,1.305371306,-4.345336093,5.699933177,1
177.4610715,-8.76265258,-20.75244195,-5.583567038,23.20827757,1
42.3,-2.48,-2.44,-6.24,7.15,1
58.7,0.687,-3.71,-5.66,6.8,1
37.60428217,0.8833587492,-2.811634524,-10.9209815,11.311651,1
33.5,4.39,0.406,-4.98,6.65,1
188.9596834,-2.910663845,-6.795651573,0.4688683426,7.407609725,1
229.2511906,18.27637065,9.979092121,30.20684938,36.68871425,1
290.8032778,-0.3360134634,-3.196352955,-13.53878229,13.91503514,1
148.8892794,-0.7614665222,1.090358077,7.901630779,8.012769869,1
4.156828167,-0.6339339249,-2.778579921,-7.197628938,7.741333278,1
47.67087767,0.4943958244,-2.211246806,2.785931041,3.59102373,1
186.9621803,-1.581445254,-9.121690332,2.831283215,9.681031363,1
55.0,-0.757,1.19,0.365,1.46,1
62.4,3.22,6.23,1.25,7.12,1
21.00627817,8.136666629,-11.7070952,13.47222109,19.61535529,1
164.7736516,0.6844177616,2.213647673,8.1959381,8.517162968,1
48.6,0.66,0.882,0.12,1.11,1
46.9,0.317,0.603,1.73,1.86,1
285.1318738,1.074037036,-3.721049635,13.44191848,13.98874327,1
264.6847288,1.536823398,-2.210235676,3.194048567,4.177189743,1
33.54244921,0.4030977646,0.3485039932,0.2938646865,0.6085222223,1
37.78480817,-0.3447981741,-0.3957626519,-6.204501579,6.226664733,1
164.4025576,-0.07413538545,10.11892478,-1.06898168,10.17550276,1
16.06149933,-0.7243312211,-0.4670717856,-2.726138583,2.85913332,1
35.5,-1.48,-9.37,-0.997,9.53,1
85.93902187,1.940487246,0.3261185127,2.089459244,2.870136576,1
249.8287159,28.14559593,-4.958370461,59.1792533,65.71867336,1
280.4441833,-1.73800153,14.59270432,12.56665579,19.33619679,1
23.4,-1.63,-0.309,0.176,1.67,1
15.2,-0.634,-0.0709,-1.03,1.21,1
103.1576657,4.195178425,-1.916269248,15.14229113,15.8291058,1
87.63396208,-8.631502456,-33.41597674,8.721157229,35.59759711,1
3.75,2.14,8.1,0.436,8.39,1
49.7,-1.0,-0.826,0.446,1.37,1
236.8096555,4.782282146,-2.905018358,-11.90203904,13.15172564,1
61.88255042,-3.846540531,-0.1980109879,10.72548686,11.39610244,1
152.9387899,-2.324155371,-7.409623834,1.769666834,7.964668496,1
143.4087192,3.768661466,-12.72300565,-12.73935681,18.39480617,1
53.47087067,0.3649401874,5.162122537,-2.556340118,5.771963724,1
94.15386221,0.4347101513,0.2938339886,-3.672799873,3.710090328,1
109.8728747,3.592512925,-10.74924059,-15.0449958,18.83624753,1
197.7828312,1.419101112,-6.569826842,-12.14071653,13.87708437,1
59.4,0.979,0.615,-0.463,1.25,1
195.0229479,0.9623505396,1.535079466,0.004294487536,1.811796338,1
19.9,0.111,-0.263,0.147,0.321,1
36.2,-0.0127,-18.6,4.82,19.2,1
23.20231358,-0.130644047,-0.2022961199,-2.442693635,2.454535349,1
59.6,0.969,-0.364,0.441,1.12,1
193.4264621,-2.376174394,-4.575616402,-1.075904052,5.266881405,1
23.2,-0.922,1.27,0.412,1.62,1
132.5981607,-18.64960428,9.128939125,34.71117711,40.44763387,1
220.3978662,4.044655892,1.575274688,15.71915872,16.30744255,1
4.9,0.0932,0.425,-0.322,0.542,1
9.42,1.67,9.09,1.58,9.38,1
190.5697845,-2.133773537,-10.48345423,3.389792297,11.22258856,1
29.43046729,-0.2216685301,4.909068493,-9.441648803,10.64391011,1
7.73,2.05,3.1,-1.3,3.94,1
238.2852143,-4.132530772,1.561092266,-11.44980953,12.2724471,1
126.8064282,0.2576656707,-6.692537679,-7.700062053,10.20526373,1
106.189045,8.784729327,-2.832571356,10.73195973,14.15520715,1
34.43713071,-3.365974541,-9.663472869,2.298961473,10.48797961,1
74.38539446,4.164105444,-1.716276785,-7.620176808,8.851693326,1
37.6,-4.56,-5.73,0.0122,7.33,1
48.9,1.54,0.958,-4.43,4.79,1
25.72968192,0.2314613372,-0.8676627758,0.5577699941,1.057128379,1
51.77280367,0.5004232804,-0.6197121808,-9.384194646,9.417939043,1
144.9151721,-4.82879967,8.206533254,3.903599708,10.29089816,1
47.0,0.0944,1.17,-0.963,1.52,1
94.48510604,0.421096006,0.739597351,-0.85735852,1.208052035,1
36.7,0.128,-0.554,1.79,1.88,1
20.7,1.32,-1.66,-0.982,2.33,1
9.9,-1.26,-1.21,-1.39,2.23,1
257.6281187,5.526060841,-9.996703935,-3.332339895,11.89856828,1
18.1,-4.36,1.5,0.942,4.71,1
98.62605375,-0.7037544306,6.808382131,0.9294533734,6.907475741,1
1.502399417,30.30721333,-47.07474506,37.20357851,67.22101648,1
96.88411371,0.927906931,-2.064291366,2.615037392,3.458428932,1
21.6,-3.51,-4.93,-8.34,10.3,1
0.515,1.51,-0.111,5.4,5.61,1
228.9099056,18.95426526,-5.792647097,39.07042373,43.81000961,1
130.6030507,2.042688535,8.820130125,2.305919659,9.342619405,1
143.1600076,-1.018965109,0.4092606568,1.953291625,2.240788332,1
107.8753764,2.144055574,-6.228289222,39.78173751,40.3233828,1
210.9222238,5.359049159,1.703562599,10.61379802,12.01142131,1
136.1894946,-0.006578958146,-0.1879669333,-0.6815679748,0.7070429655,1
39.15880908,-0.5690643297,-0.5744725657,-0.1726226699,0.8268322237,1
63.24303058,0.2783124085,0.1350098705,0.03095018953,0.3108751777,1
33.4,-1.28,-0.63,0.631,1.56,1
10.84630258,2.895789113,0.03736224622,-0.2816007364,2.909688901,1
31.36551296,-1.834232959,16.54377985,3.21689013,16.9531544,1
118.8252328,-4.731172219,-5.471780553,-2.792700362,7.7539376,1
270.4866131,14.19011884,5.778385738,14.63966681,21.19124958,1
64.4,-0.506,0.368,-0.683,0.926,1
18.2,0.139,0.313,0.642,0.727,1
230.1746672,-13.73207486,-11.5349485,-23.48657426,29.55070367,1
89.93803117,-4.67829614,-1.109583137,-14.86434724,15.62262617,1
306.7735768,1.234564448,-0.9361463888,1.04357889,1.868040775,1
46.2,-1.04,4.49,0.165,4.61,1
156.3889501,2.034290764,2.308911095,0.6267912586,3.140426187,1
218.259822,1.649969067,-12.58239883,-11.88380157,17.38573835,1
95.88034467,2.294994137,-1.289671532,0.192849943,2.639591228,1
92.68870871,1.022608728,8.94346369,3.191583381,9.550784045,1
14.8,2.28,-2.32,2.09,3.87,1
78.45488954,2.390954839,-4.492366084,-7.838156329,9.345304314,1
16.9,6.45,8.75,1.23,10.9,1
9.23,-6.19,-0.616,-9.12,11.0,1
135.9487849,-2.789364526,0.09347066581,-0.1603996686,2.795535597,1
44.3,-0.243,-0.515,-0.795,0.978,1
43.1,-1.5,-0.885,-1.47,2.28,1
54.05945204,-1.932347922,-1.259594332,-7.861817088,8.193211476,1
107.3917083,-2.265301099,8.59723251,3.912892395,9.71363592,1
277.7239183,-0.7901924309,0.4207899043,-8.601740713,8.648202791,1
223.9913907,-4.011913531,-12.18079335,-22.15107255,25.5956479,1
18.50863267,-0.002454770766,-1.092642877,-2.004008619,2.282526019,1
72.93116696,1.995098632,10.13474383,3.350272136,10.8589951,1
118.5243498,0.108470455,2.44518221,4.049219936,4.731475876,1
210.8921108,5.494131535,-3.50687285,29.33430447,30.04970977,1
260.358413,1.588015478,0.5486362047,1.917051752,2.549094401,1
3.454786292,-0.7300567415,-4.286502578,-1.78363934,4.699835795,1
93.81258021,-1.763902356,-1.586952162,-2.490196999,3.439600236,1
193.6388565,0.7309884953,-0.1106930548,-1.610772257,1.77233868,1
22.6,-0.854,6.07,2.61,6.66,1
46.1,-6.86,2.92,2.07,7.73,1
27.5,-0.963,0.489,0.191,1.1,1
162.0155242,0.7643606016,0.7683603895,-1.858051007,2.151041227,1
128.9444515,0.8524632311,-14.71106833,-28.26128192,31.87228076,1
21.0,2.18,8.82,3.31,9.67,1
19.3,0.905,3.37,0.0541,3.49,1
11.5,-1.8,-1.46,-0.392,2.35,1
16.15176233,0.4618877173,-1.06132402,-2.327672471,2.599578441,1
27.6,1.15,2.12,0.0863,2.42,1
31.5,0.0103,2.98,-0.96,3.13,1
149.4011995,3.689603894,-5.042706022,-10.42935813,12.1578605,1
61.6,-1.04,0.0713,0.325,1.09,1
124.4818467,-1.039268907,0.9001700789,0.6509863061,1.521239364,1
51.7,2.34,3.95,5.05,6.83,1
152.6278749,-2.244235919,-2.03564381,-8.846786996,9.351260917,1
302.7885264,-1.682965197,-5.142544305,-14.87254738,15.82626928,1
143.6496232,-11.92066242,8.106073412,4.44379151,15.08502243,1
161.9051992,0.2101175749,-1.72543791,-0.8359225544,1.928743605,1
1.44,0.64,-4.32,-3.25,5.45,1
296.1434361,15.44901969,0.3275744694,-5.984076167,16.57071761,1
173.0179609,-0.6848663161,-0.2247359794,-0.3234625612,0.790048201,1
13.9,-1.48,0.49,0.548,1.65,1
2.802890292,-0.404164114,-3.521192096,-6.129535596,7.080490734,1
37.03261708,0.1650560805,-0.4891114032,6.033854098,6.055895372,1
26.3,-2.42,-9.92,-0.0806,10.2,1
304.4748949,-0.9575202278,-3.101466678,-4.140573032,5.261205715,1
259.3044392,-1.21624249,-1.944992672,6.012026442,6.434804133,1
153.7411519,-0.3308196741,-0.02664810061,0.2132426924,0.3944923623,1
126.6357882,-2.669944794,-1.523573315,-1.364569395,3.363321346,1
108.1263184,-8.691926998,-14.50332729,-28.882724,33.46801224,1
52.1,3.86,6.54,1.22,7.69,1
0.9876120416,-0.8139623858,0.3615783674,6.091017648,6.155791555,1
150.4852663,-1.559447737,0.3697954595,1.458947841,2.167292026,1
11.80910721,-2.073170948,1.453035282,3.223846563,4.099089651,1
232.7744572,-7.626659616,1.352983429,-17.72527292,19.34377939,1
144.0511292,-24.37659533,8.018182159,48.08499424,54.50391102,1
146.6910322,-0.7677910899,-11.69052186,-5.628468976,12.99759468,1
160.6615356,1.655347628,6.647852088,-2.470957906,7.282839152,1
93.36067033,9.130266443,4.200771287,4.78508881,11.13127664,1
17.26208217,-1.589220151,0.7590567385,-1.283883081,2.179482412,1
167.0202746,0.1297798285,0.9935828573,0.3155261354,1.050526744,1
20.8,-0.676,0.0741,0.295,0.741,1
1.83,-4.14,-7.02,-12.6,15.0,1
134.5253927,1.725008432,-9.498752711,-9.844994416,13.78861386,1
27.8,0.271,0.531,1.07,1.23,1
117.7022615,1.451450395,-1.343317689,-6.960254202,7.235768737,1
166.8265834,-1.604533862,-1.124662376,-1.882626269,2.717292043,1
63.68431158,-0.1907342742,0.3109917659,-0.228271206,0.4303523966,1
241.3166348,-0.7149639085,-1.213522366,-4.629901952,4.839400997,1
156.3472587,10.38460354,3.431061945,15.2393783,18.75768717,1
120.0889432,-0.6105343911,1.577341386,-1.991339457,2.612698016,1
52.3,-0.696,6.7,-0.271,6.75,1
104.141359,4.73346959,0.4667478499,-28.24239308,28.64011792,1
13.1,7.77,7.63,-4.19,11.7,1
280.8456983,5.019214248,-8.89832377,-3.803460585,10.90132974,1
86.13960587,0.9643421743,1.113560706,4.814124913,5.034458457,1
57.1,0.916,1.87,1.63,2.65,1
58.371993,-2.004372901,-1.018056232,0.1874266505,2.255898483,1
59.1,-0.255,0.503,0.686,0.888,1
25.37865854,-0.7871922977,0.4755800691,-4.588227092,4.679495268,1
160.5530408,4.942577716,-0.3535850774,0.6277523947,4.994814306,1
84.15631467,-1.457389411,-9.49734821,-8.873191853,13.07888147,1
202.5306753,-4.230136296,3.064758443,-0.1569889694,5.226035107,1
40.11859792,-0.7811212067,-26.26059862,3.926576049,26.56402058,1
230.9977664,78.00515463,-17.17046805,34.07944159,86.83914706,1
18.2,-2.25,-7.41,-1.06,7.81,1
8.06,0.512,-0.195,-2.45,2.52,1
53.9,-1.03,-0.0407,-0.674,1.23,1
39.1,-1.82,-0.19,-1.22,2.2,1
250.1198129,-8.173848488,-0.09695911467,-13.55798805,15.83162153,1
63.4,0.114,0.24,-0.281,0.387,1
22.3,-1.4,0.551,0.623,1.63,1
277.9949413,-0.127271373,-1.444993168,3.294964492,3.60013809,1
216.834461,8.765870302,1.975940522,9.836493734,13.32296634,1
198.8066787,-0.5904404345,-11.16903325,-5.913262877,12.65158494,1
147.7134085,0.9401369673,10.68542876,1.280251375,10.80283707,1
234.9225479,-1.44076797,-0.7167810769,3.670843395,4.008076682,1
137.948233,-11.37932018,8.389168696,22.09798684,26.23333951,1
275.5958898,-4.420041289,-4.68911115,-13.5128417,14.97068533,1
235.3842863,0.1692409145,-0.05428167634,1.992462122,2.000373539,1
219.4944673,-0.8834549358,-11.6113564,-11.68567218,16.49724293,1
23.1,0.94,0.745,0.807,1.45,1
27.3,-2.25,-8.95,0.965,9.28,1
45.18965404,-3.243784398,-3.715964019,-13.49924692,14.3722021,1
76.66817292,1.777159748,-0.1610234752,6.074267714,6.330952029,1
3.23,-1.86,-1.9,0.714,2.76,1
301.3832203,0.7722098308,0.5658097695,-5.549945548,5.631904145,1
162.7878001,-1.182787208,2.004214441,0.9665505946,2.519936737,1
47.3,-1.42,-4.93,3.28,6.09,1
195.0028889,-1.546881486,-0.2658126694,-0.3888244919,1.616998204,1
15.91106033,0.1623951589,0.3781806591,-0.6414050585,0.7620979252,1
104.5132761,1.693369733,10.43756294,-0.565232832,10.58913167,1
113.7302831,-6.190118598,-35.46612983,4.645614005,36.3007667,1
150.5756053,19.7182496,26.40930501,10.20986535,34.50365355,1
53.4,0.221,0.0284,-3.14,3.15,1
208.3224485,18.75834144,-8.333893213,32.94888011,38.81955499,1
26.0,-0.541,-0.388,-2.08,2.18,1
177.8379187,0.6839855061,-11.70476567,-6.612470001,13.46083709,1
91.36484375,-3.52652885,5.948403473,-6.083059587,9.209968706,1
24.67661154,18.53991636,-7.302020448,50.32027252,54.12187938,1
103.530399,-1.50741278,-13.45976418,-6.64251241,15.08510909,1
40.3,0.662,0.23,-0.209,0.731,1
118.5845258,3.078257325,1.782234254,0.3908913365,3.578382754,1
135.3484804,1.966299341,-11.38740804,-6.397258551,13.20849394,1
165.2149529,0.8315760997,9.35910249,1.362148501,9.494196478,1
129.8378029,-3.675109816,-9.985376709,-7.134529295,12.81076455,1
130.6307787,-11.5864765,20.2062091,42.17622378,48.18060996,1
68.56849125,0.1038231611,9.445026155,1.782804358,9.612371699,1
233.6176322,1.36963016,-0.1699311966,4.135148571,4.35938265,1
74.58597746,2.686965746,1.803864567,-0.4689958119,3.270117638,1
126.5755622,-3.189426635,4.664124536,11.62357592,12.92416407,1
161.6973343,-4.631913102,-8.870381681,-15.23613777,18.22849924,1
158.8662464,10.26004616,-8.096868725,-2.026146909,13.22622779,1
2.522073292,-2.237209905,-2.569458639,-8.665444958,9.31113109,1
149.0373046,-1.413080088,-10.84788312,-1.962036721,11.11408798,1
32.7,-0.218,-0.757,-2.46,2.59,1
229.8534582,-13.13263819,-16.83251068,-23.22757769,31.548692,1
177.0197679,4.069770268,3.981356859,16.65540085,17.60160817,1
257.9392917,18.16617637,3.464493985,23.05583561,29.55645848,1
174.0737862,-0.4935792607,-10.18056378,-6.502896688,12.09029217,1
60.05980325,0.6787181881,-0.2680512759,1.557045701,1.719564241,1
12.2,2.3,-8.97,0.137,9.26,1
29.9,0.434,-1.72,0.997,2.04,1
48.74400054,-0.3875319649,1.900287784,1.331234418,2.352330709,1
28.47769017,-1.088039802,-0.3229735878,-2.696410754,2.925538156,1
155.2656409,-1.323875551,-3.812467636,-2.022230297,4.514085879,1
85.48770646,-0.2985915025,-9.895813737,6.178070995,11.66982637,1
22.3,-0.352,-0.35,-1.77,1.84,1
132.1263905,-8.742800698,14.75055458,40.21292055,43.71606574,1
146.0585371,0.1135463864,-0.07652251124,0.4016443661,0.4243426368,1
9.5,4.06,8.14,-0.213,9.1,1
104.462565,0.5820242447,-4.503666413,-22.3509561,22.80760843,1
127.0071822,5.838816127,5.371439409,21.37813145,22.80282086,1
52.3,-0.284,-0.207,-0.175,0.393,1
194.2907839,0.0578587836,0.1912168157,2.744290679,2.751552805,1
134.4243002,4.400944868,-10.17331324,1.290070605,11.15925177,1
70.29350258,0.005629406869,3.761561776,0.6176656553,3.811940392,1
230.7568594,-4.477266819,5.019506024,-4.317507439,7.992635947,1
106.479032,1.229137501,-4.417859108,-2.352122165,5.153710971,1
232.4231342,-2.703515998,-4.612868721,-13.74680868,14.7499934,1
42.7,4.63,-1.11,-0.486,4.79,1
86.10951887,1.035720671,-0.2850307131,4.41305182,4.541914374,1
37.29794283,6.167640731,-24.04463486,0.1742791861,24.82367078,1
118.6447028,2.41989651,1.3387592,-4.909029316,5.634424917,1
184.3413831,0.01965746194,0.7453627056,0.149393144,0.7604408525,1
278.0551683,-3.560236587,0.904775419,-1.891907555,4.131974989,1
284.198351,0.1958478105,1.64390068,-3.755386532,4.104106945,1
33.0,-2.73,8.05,0.0207,8.5,1
95.57921467,-2.671854202,1.114955267,-0.6464529598,2.966451003,1
71.707611,-0.794501975,11.15758206,0.7270252526,11.20943516,1
70.64452158,1.851145445,-0.3907817012,-4.601534185,4.975295635,1
33.13125121,-1.298565732,-2.341054409,-1.286389782,2.970119085,1
288.7555495,3.74651192,-2.179932773,15.18599673,15.7924968,1
151.2137123,0.7472238743,5.815517896,1.219036875,5.988709613,1
17.90687867,0.3650961985,1.478859072,5.83903072,6.034451022,1
21.18643692,-0.8486328663,0.5011683619,5.843350643,5.925883411,1
152.0963113,-0.9506832978,10.9054665,1.158140316,11.0079193,1
44.1,1.8,10.3,0.342,10.5,1
44.1,1.92,6.76,2.79,7.56,1
46.80574867,-12.8428151,5.405497686,-9.966001375,17.13121386,1
168.2117822,-6.02024295,-11.50282039,-11.28588167,17.20259652,1
5.27,0.552,-1.45,0.402,1.6,1
190.3047352,-1.734483553,-10.57573265,-34.33932226,35.97281762,1
186.156746,4.556821112,6.163582179,-1.509678576,7.812393572,1
46.2,2.25,0.172,-1.35,2.63,1
43.5,0.633,3.35,7.12,7.89,1
106.028442,-2.921152873,-13.27329531,-16.9703389,21.74180087,1
203.1229013,3.446507657,2.240155732,-4.076284066,5.789024488,1
240.5738358,-3.901596744,-9.752096193,-5.272853014,11.75282163,1
60.97914954,-5.580227108,2.179913624,7.020945377,9.2295521,1
54.2,0.0486,0.63,-0.0257,0.632,1
127.1175962,-2.039562614,-1.776990179,4.003931789,4.832078178,1
145.5969283,0.6510731372,-0.1047967225,-0.4405795133,0.7930881985,1
18.43842767,-0.6859176455,-1.924664242,-2.909224845,3.555053398,1
302.3769719,-2.24154123,-3.896998494,-16.41445815,17.0189759,1
118.7750858,2.42354605,-2.441972673,-3.027583015,4.582910091,1
96.26916583,-7.421907665,-14.2326012,-8.17975593,18.01555043,1
45.5848115,-4.616862077,-1.095541487,-6.749741575,8.250735598,1
104.362188,4.980693376,1.760038662,1.668184313,5.539664385,1
140.5824211,1.033840352,7.067293332,0.9384032679,7.203892115,1
44.6,-0.989,-3.66,-0.813,3.88,1
19.56170146,-1.739818698,1.078516003,-1.756559715,2.697344603,1
54.4,5.3,3.15,7.82,9.96,1
131.6144705,-4.980917909,8.726699805,43.86252803,44.99873551,1
7.29,-1.1,-1.7,-2.14,2.95,1
55.2,-3.26,-6.66,1.62,7.59,1
154.0320089,0.3317382717,0.8890638775,0.9482968298,1.341548261,1
45.8,2.33,-1.31,6.06,6.62,1
3.715544167,0.9227631354,1.619859122,17.82408969,17.92131716,1
16.0,-0.22,0.0176,-0.322,0.39,1
275.9672908,0.1014939228,1.080618662,-9.772209445,9.832299586,1
58.74072029,-2.256248732,0.3548384281,2.671397535,3.514674016,1
163.8609624,1.926864987,-20.92931788,-0.3628372729,21.02096113,1
72.27164167,-0.6263220926,0.5543167748,-10.44163845,10.47508282,1
227.8760141,2.972723853,5.298510597,8.670848955,10.587489,1
10.82624358,1.089052832,0.4206434315,-5.224500634,5.35335258,1
182.6564074,0.2473028332,10.62783836,-0.9472565371,10.67283476,1
22.9,3.47,4.08,4.3,6.87,1
14.77264104,-1.300975077,-2.26355322,-10.21424608,10.54262929,1
240.3730798,11.30105636,-5.287145364,15.60921937,19.98288043,1
171.4734051,4.78930933,10.26050692,0.1227348107,11.32389288,1
126.1339057,-1.601560699,-4.058037245,-0.03082944453,4.362752962,1
23.6,-2.32,-0.961,1.26,2.81,1
42.45570917,-1.526622638,-1.358584185,1.480088156,2.523289245,1
39.06854608,-0.3108388612,-0.6291833545,1.03190317,1.247924935,1
227.1432549,17.47565762,9.603616676,27.28399935,33.79415161,1
13.5,-1.52,-1.3,-1.93,2.78,1
295.3705197,2.337288217,-5.650869659,35.53023637,36.05264124,1
36.4,1.36,-0.852,-0.0772,1.61,1
180.7689236,-6.935213501,5.678129379,6.935853771,11.33333168,1
8.84,-5.72,-6.0,-5.81,10.1,1
259.976975,-3.280921819,5.803155713,-3.658420401,7.604281954,1
101.3809953,1.337616362,4.417466176,-12.64829695,13.46412421,1
251.8463205,0.2977439852,-13.11894168,-15.908046,20.62186242,1
108.1639665,2.67286694,8.595708725,5.397109855,10.4956763,1
196.0459733,3.517864446,1.02246072,-1.08659744,3.821189629,1
119.9886492,1.187948837,2.217918479,0.8900538111,2.66881633,1
154.269462,18.55585821,-8.663534088,19.34352727,28.16999723,1
63.6,-0.736,0.014,0.518,0.9,1
30.6,0.929,0.421,0.199,1.04,1
6.6,-0.58,-0.254,-0.128,0.646,1
24.99754754,-0.9510874135,-1.7732063,-10.23757648,10.43344622,1
120.0008901,7.174955775,-2.310758961,21.1344499,22.43846185,1
133.7424542,-2.150829281,-2.268578755,1.196840844,3.347378701,1
52.7,-0.271,-0.113,0.0988,0.31,1
248.6241738,-13.7294518,1.78325854,-5.917368207,15.05633104,1
107.6445094,-2.29023348,-14.70568422,-18.72028425,23.9155046,1
11.0,0.0864,0.423,0.424,0.605,1
80.18137817,-0.5413855112,-6.957132958,-13.16828165,14.90296745,1
134.0435842,-3.348852139,-12.92218989,-5.184610929,14.32054442,1
152.0210276,4.002079391,-1.597629763,0.4766322756,4.335462909,1
25.6,8.01,-7.12,4.22,11.5,1
71.517058,-3.990505412,-14.03266969,5.050015626,15.43834868,1
118.2635838,-4.861261365,0.4085005188,4.519505936,6.650163054,1
250.792347,-8.041278076,-2.98044247,-8.992589073,12.42625642,1
74.78656046,-1.917374518,-12.23176236,-3.889587148,12.97772028,1
162.1189163,-12.71690116,-9.718165385,-17.69885637,23.86235173,1
117.5115465,13.33429229,-3.199073079,2.129880461,13.87709661,1
33.4,-0.807,-1.46,-0.684,1.8,1
13.8,-2.33,0.7,-0.69,2.53,1
36.41080679,-2.221693003,1.068609651,-2.711574338,3.664762172,1
197.2709072,2.005761468,-1.058976801,31.12351737,31.20605462,1
207.0777689,-0.3947031364,-2.509420305,18.407229,18.58168615,1
46.0,0.571,0.592,-0.406,0.918,1
300.2087851,-5.019924685,-5.896198947,-15.63865425,17.45085421,1
23.68372033,0.6743817468,1.169497217,5.065269257,5.242086143,1
45.8,3.99,2.57,-0.515,4.77,1
118.1439195,3.806517509,-3.359932028,-0.7604140234,5.133901856,1
26.68780654,-3.316131121,12.08645905,3.981719971,13.15041109,1
178.905333,-2.361657073,4.300590275,1.524360934,5.137721003,1
116.0069617,1.369140748,1.789535088,2.248762541,3.183381093,1
186.6080782,-1.702052848,-4.505552725,1.447197568,5.029052601,1
17.52576742,-0.9885595874,3.144470025,-1.098501202,3.474427534,1
124.4316997,-0.38358641,0.5180516124,-2.047739945,2.146801083,1
49.40592217,-0.3317067698,3.634387175,5.964124297,6.992108277,1
4.09,-6.09,-1.6,-1.27,6.43,1
153.7575423,6.823112437,-0.8710603005,11.40098294,13.31525521,1
140.5723921,0.9243201759,7.331185191,1.060100198,7.464881547,1
112.4927085,-0.6569059541,-7.227889448,-11.06211574,13.23043144,1
92.04594646,2.957391284,3.093150183,14.25666366,14.88509993,1
166.4987376,0.1394186711,-0.04818748891,1.824630661,1.830583691,1
117.2003788,5.423108915,-0.359809877,1.071827958,5.539710157,1
49.3,2.11,9.66,1.45,9.99,1
29.6,-2.98,0.114,-0.000266,2.98,1
12.97582621,-0.3440871526,0.1766440925,-6.474023137,6.485566643,1
300.3995053,7.464877099,-1.80950903,34.06833422,34.92348937,1
48.12219254,-0.5016519266,-2.895668953,-6.08337943,6.756038679,1
22.7,-0.567,0.132,-0.108,0.593,1
23.8,1.33,9.46,-3.14,10.1,1
251.213936,5.717647201,-12.57023896,-25.11032734,28.65712714,1
6.290493333,-6.210940533,-17.98843037,-1.434251979,19.08445671,1
56.4,0.235,7.51,1.41,7.64,1
18.8,-0.576,-0.228,-0.0851,0.626,1
77.73513596,-1.154924348,4.363613319,0.588679107,4.55208903,1
289.3076335,0.7436401889,-4.790237283,-11.83497498,12.78929266,1
68.47736921,-4.116370822,-0.04452435449,-6.316441845,7.539491279,1
53.1,0.339,0.761,0.782,1.14,1
33.9,0.786,0.279,-1.01,1.31,1
44.0,3.45,10.3,-2.52,11.1,1
237.5926043,5.072964778,6.881301003,-9.526186677,12.79982452,1
292.439454,-0.9700729573,-1.321615164,-7.499389704,7.676493609,1
81.20523308,2.978713741,9.232231944,-7.348317533,12.16982386,1
98.59596575,-0.4823588193,9.191528891,-0.6546552877,9.227429053,1
83.22110308,-13.51847023,-38.31697725,12.94397895,42.64371435,1
223.6300307,-10.06637936,-4.223446497,-11.82814309,16.09579022,1
66.70307433,1.400168705,2.660469966,-6.048798412,6.754741673,1
18.8,-1.16,1.26,-0.336,1.74,1
48.7,0.115,-1.68,-0.422,1.74,1
89.760163,-1.888204659,8.043429267,3.460138979,8.957378688,1
17.97708267,0.6329518119,0.8589109558,-0.9413374007,1.42283946,1
297.0167339,11.81144929,-1.318780141,26.97521725,29.47731095,1
19.99243558,0.6103302502,-0.209791081,-12.48521694,12.50188615,1
33.17234858,0.1093367931,13.49721443,1.672880212,13.60092938,1
56.31601337,3.668729627,-4.574613312,0.1398420095,5.86568153,1
113.3591951,4.614599204,9.793707318,-3.609754025,11.41234213,1
14.7,-6.96,-3.69,-5.48,9.6,1
76.32688992,-4.383374277,-1.603644501,-4.311292434,6.353966335,1
69.81239129,-4.311817514,-2.14831147,-16.89135705,17.56487847,1
112.3220675,1.371871105,-13.07072554,-12.06305381,17.83937117,1
35.8,-1.89,-8.11,-0.524,8.34,1
61.7,-1.62,-2.47,0.795,3.06,1
101.5415983,-3.724713793,0.3428561676,-4.070704653,5.528261893,1
39.1,-0.14,10.2,-4.41,11.1,1
16.6,-0.617,2.23,-1.74,2.89,1
172.1164395,-2.693021123,-10.7188912,-14.30080663,18.07373956,1
129.5298925,-0.1850643754,-11.74237847,-8.709517177,14.62099143,1
114.793401,-7.303178197,-5.218740542,-1.677018871,9.131487114,1
106.930354,-0.6934343874,-12.15305416,-20.3048563,23.67413707,1
112.0553721,1.657064663,-22.20564344,-5.45357057,22.92548573,1
95.01550358,-0.4981735642,0.07351821184,0.3905356796,0.6372597152,1
159.7789354,-2.695565831,7.471224251,-0.921770936,7.995932005,1
269.6635085,-5.52840382,-4.731015514,-14.29896125,16.04387888,1
22.99170058,0.1775068492,0.641971069,-0.5862389177,0.8873058117,1
175.2381589,-2.374204467,-5.452354934,2.50130437,6.451476166,1
2.6,6.44,-7.4,2.61,10.1,1
3.24,1.01,1.56,-1.14,2.18,1
54.1,-1.16,3.18,-0.872,3.5,1
171.8855725,-7.309335315,-1.078024545,4.343571403,8.570596957,1
15.8,3.18,10.2,-0.878,10.7,1
232.7041922,-2.453125067,3.665064884,-12.66848622,13.41421135,1
13.4,0.73,3.45,2.58,4.37,1
204.7590513,-2.276071524,-2.985209997,-11.95213681,12.52779129,1
286.9286538,-2.323804538,0.1631031105,-18.18508977,18.33368921,1
303.5012182,1.592707576,-0.9511443508,-0.1810678035,1.863914845,1
36.09990079,-1.969332584,-2.173328343,-0.1297783667,2.935722967,1
255.8213052,-0.01790826738,4.685048797,2.095734476,5.13245613,1
14.3,-0.328,-1.72,-1.96,2.63,1
69.71181233,3.769968026,10.53678201,3.698041426,11.78609114,1
85.28053792,-0.3648384824,0.2749314022,-4.111927523,4.137226408,1
123.544187,-6.587145125,-16.42281031,-18.45382195,25.56643745,1
208.2923357,4.538841801,-2.628555863,-0.1100866985,5.246190036,1
186.3298053,-1.131606821,-8.7279476,0.2429219896,8.804352015,1
139.3836201,-4.840223376,-2.764712664,7.014337438,8.959482582,1
11.6,1.29,1.08,1.21,2.08,1
270.2657805,-9.507432902,-4.342333255,-9.469757538,14.10402235,1
179.4138357,5.52493876,2.181118735,21.64226187,22.44258733,1
141.1741639,0.2206288221,5.895629429,-1.337950676,6.049564897,1
44.2,1.69,2.11,-3.91,4.75,1
19.4,-5.2,-5.94,-7.15,10.7,1
218.8922019,-2.548723535,-8.773160026,-6.593896905,11.26693414,1
247.309218,-21.1069446,5.302532896,-12.36139045,25.02846259,1
6.922887333,16.46834609,2.676727272,21.10832221,26.90599483,1
76.55775792,4.515735359,2.905578229,5.611454163,7.766766927,1
142.5354432,-10.26218858,11.82206667,25.71542294,30.10575944,1
44.1,2.31,11.7,-2.29,12.1,1
11.5,-0.412,1.62,-0.00763,1.67,1
228.1068831,10.99047098,-0.6638127583,3.183166314,11.46139815,1
57.80720533,9.130921331,-12.49147696,14.88491424,21.47024436,1
162.6273271,-1.427346271,1.499892091,0.6499250364,2.170114333,1
139.3487907,0.7163498448,-4.633186918,3.949135777,6.129865537,1
81.81752717,-4.093312912,-2.031032696,-13.39794508,14.15574925,1
17.79655667,1.765485929,4.798712237,6.141546362,7.991443638,1
279.0188043,-1.102929298,2.161359531,-12.1686136,12.40818621,1
14.09577008,-14.73792693,-1.120200512,20.57645947,25.33479867,1
23.3,-2.44,-0.622,-1.98,3.2,1
16.44261033,-0.4350277282,0.8364333817,2.168206621,2.364315943,1
189.2507764,-3.570600192,-1.645889172,-7.009481326,8.036850462,1
9.9,-1.14,-2.89,-2.13,3.77,1
167.7600872,2.334152501,7.172611626,29.09020427,30.05219808,1
161.4438402,0.0942729038,9.102001002,1.362560291,9.203905702,1
168.7854792,6.991235089,3.114389024,0.7901610752,7.69422781,1
56.3,-1.27,-0.439,-2.93,3.23,1
79.32977525,0.06979295075,5.940665268,-1.979500015,6.262171763,1
167.5091452,-0.5121861973,-9.60626605,-7.003748131,11.89937687,1
13.60822479,-1.092426603,-2.122385208,-5.542454095,6.034626107,1
158.9264234,1.511827282,-5.138124395,-3.224107933,6.251465108,1
48.1,-1.09,-1.32,-2.39,2.94,1
46.6,0.0869,0.00562,0.371,0.381,1
226.7919319,6.123866136,-6.10000248,-2.092033188,8.893164204,1
191.5827784,3.250001743,9.936669402,-0.4774011844,10.46555407,1
4.41,-0.735,0.707,0.0464,1.02,1
63.4,-0.00491,0.306,-0.382,0.489,1
0.5186902917,-2.040885839,-5.833457154,-6.253719932,8.792238075,1
115.955706,7.169572243,-8.929433296,-7.480423676,13.67824124,1
38.4,1.36,0.316,2.67,3.01,1
81.53619708,1.569356428,6.142159735,-0.8273788221,6.393243428,1
2.251286667,3.40412967,1.824064943,16.97443196,17.40823518,1
21.20649592,0.1280837705,0.08904490829,2.71402666,2.718506053,1
46.90612767,-4.320813163,3.295481679,-19.58792802,20.3277286,1
81.05479608,3.082511759,9.494517573,2.86681499,10.38587362,1
82.95178829,-8.31635215,-1.15215496,-11.01835635,13.85255755,1
77.29051229,-4.384512438,0.1750230981,-7.18907797,8.422435779,1
92.66828317,-0.8170560014,0.04422570795,3.624750963,3.71595963,1
51.70421329,-2.961717931,-5.974572102,-10.93466281,12.80758118,1
99.91983562,1.982509138,0.2219258076,-2.229090169,2.991393744,1
92.40788871,2.9791669,10.53642065,-2.477712024,11.22633744,1
116.8189468,4.768654333,-4.536095071,-5.332913275,8.470902351,1
6.66,-0.701,2.1,-0.0935,2.22,1
105.636565,-2.719285646,-9.449068335,-6.928316125,12.02834033,1
188.4979484,-2.826982003,-10.43448263,-8.744417453,13.90449897,1
54.9,3.11,1.05,-0.589,3.33,1
43.6,-0.426,0.12,-0.645,0.782,1
0.0845,5.2,-1.97,-3.34,6.49,1
140.8331591,-0.3080006958,0.7210090524,-0.2529049043,0.8238199881,1
264.4438198,2.869174049,-1.100730818,4.101025389,5.124663628,1
107.2329644,-2.10799828,-10.22469389,-23.72630309,25.92152542,1
240.132172,-4.112655501,1.947932944,-8.93041329,10.02300651,1
64.9,0.25,-0.732,-0.0171,0.773,1
45.8,5.18,10.1,-4.57,12.2,1
66.12138533,1.945514389,9.799256911,3.997273564,10.76051384,1
174.9069149,-3.922265482,-6.430582418,-6.224181553,9.771232918,1
142.2744642,1.28845385,-9.460530047,-9.26084237,13.3013136,1
2.15,2.12,1.05,2.94,3.77,1
34.2,1.01,4.39,-0.325,4.52,1
55.5,-3.32,-4.37,1.95,5.83,1
59.96663238,-0.3487636095,0.8658860993,0.5417462844,1.079297841,1
2.29,-4.89,3.59,-6.01,8.54,1
115.8164021,2.224770539,-1.445401888,-4.342480897,5.088804468,1
