Time (s),Linear Acceleration x (m/s^2),Linear Acceleration y (m/s^2),Linear Acceleration z (m/s^2),Absolute acceleration (m/s^2),label
100.40734,0.4908582589,2.275122082,-6.482294608,6.887471648,1
100.417377,0.6287163082,2.994102443,-6.344165833,7.043321216,1
100.427415,0.5943054441,3.698898043,-6.054367885,7.119720232,1
100.437453,0.3488226664,4.35104239,-5.519835895,7.037175246,1
100.44749,0.1154863098,4.712473408,-4.681256878,6.643410921,1
100.457528,-0.08443028569,4.788576089,-3.414249446,5.881724978,1
100.467566,-0.1907091312,4.449642819,-1.33967312,4.650851025,1
100.477603,0.16568451,3.567602324,1.386546739,3.831155121,1
100.487641,0.5604149821,2.029524845,4.164300449,4.666308421,1
100.497679,0.2539521772,0.2576846011,7.15718784,7.166326175,1
100.507716,-0.5167165469,-1.044691615,10.45881991,10.52355883,1
100.517754,-0.6209362954,-1.96185955,13.30488547,13.46307663,1
100.527792,0.2564676493,-3.110705279,14.53419941,14.86557149,1
100.53783,1.777725759,-4.516927314,13.84659024,14.67279805,1
100.547867,3.351573726,-5.762401789,11.58630225,13.36715081,1
100.557905,4.088230805,-6.489015398,8.383250145,11.36221083,1
100.567943,4.17475644,-6.925588399,5.099877173,9.560392941,1
100.57798,4.092899514,-7.17508032,2.257572541,8.563307644,1
100.588018,3.98080839,-7.220954066,-0.1982410759,8.247927775,1
100.598056,3.784134075,-7.095240684,-2.151055568,8.324010519,1
100.608093,3.746580333,-6.858068261,-3.567519001,8.590527125,1
100.618131,3.924004444,-6.44872165,-4.355994397,8.715417889,1
100.628169,3.827129529,-5.935250162,-4.623299861,8.440913252,1
100.638206,3.17868033,-5.411238483,-4.548786453,7.750933412,1
100.648244,2.517560799,-4.557109964,-4.285345414,6.74311122,1
100.658282,2.557405481,-3.583322563,-3.810584832,5.822463409,1
100.668319,3.411577268,-2.480625107,-2.824397534,5.076374869,1
100.678357,5.101124384,-1.616750889,-1.631550922,5.594400042,1
100.688395,7.744613743,-1.056410897,0.1336340207,7.817474276,1
100.698432,10.15445129,-0.5421735696,2.832794135,10.55611461,1
100.70847,11.64670399,0.3462687488,5.077796332,12.7102176,1
100.718508,11.93565,1.393121641,5.05177096,13.03537183,1
100.728546,11.5072783,1.747853942,2.200439397,11.84543713,1
100.738583,10.9691684,1.110353216,-0.9817825913,11.06884984,1
100.748621,9.797413284,0.1184414926,-2.686103867,10.15965006,1
100.758659,8.089142214,-0.7467201367,-2.780667962,8.586263858,1
100.768696,6.201347591,-1.579270383,-2.02365351,6.711630235,1
100.778734,4.406145089,-2.390741708,-1.213849225,5.15782807,1
100.788772,2.58284467,-3.213446412,-0.3437110305,4.13708372,1
100.798809,0.5743494818,-4.160352409,0.9258177209,4.300645062,1
100.808847,-1.456928505,-4.877169008,2.236657636,5.559861111,1
100.818885,-3.438704841,-5.023300867,3.386414945,6.96606408,1
100.828922,-5.115539525,-4.467268081,3.671088393,7.720240846,1
100.83896,-5.910204198,-3.611911355,2.473592661,7.354935619,1
100.848998,-5.897829151,-2.713634312,0.2636895454,6.497517376,1
100.859035,-5.417157034,-1.867713384,-1.452975787,5.911436565,1
100.869073,-5.084176229,-1.161258271,-1.736700232,5.496680489,1
100.879111,-5.775107789,-0.6957326355,-0.7275421464,5.862186576,1
100.889148,-6.335927106,-0.5581606612,1.291539425,6.490268847,1
100.899186,-6.929246417,-0.301241351,3.083550809,7.590354923,1
100.909224,-7.219025069,0.2079150018,3.975828901,8.244074663,1
100.919261,-6.146719394,0.6024042032,3.364803051,7.033274465,1
100.929299,-4.635181696,0.8212868274,1.806846939,5.042233361,1
100.939337,-4.660429388,1.088390197,0.6102195185,4.824579066,1
100.949375,-4.841427025,1.658444606,-0.06170683622,5.117974393,1
100.959412,-4.008482677,2.130821717,-0.8243790543,4.613885064,1
100.96945,-2.834460884,2.174737961,-1.911170037,4.051694042,1
100.979488,-1.705093693,1.702223294,-3.090523614,3.918704486,1
100.989525,-1.089752598,1.707078676,-4.134267395,4.603677359,1
100.999563,-0.1921836528,0.8187188034,-6.266598424,6.322775565,1
101.009601,0.4301600674,0.1418553521,-8.160518006,8.173078658,1
101.019638,0.0812365365,1.53606516,-7.85848359,8.007612621,1
101.029676,-1.168322804,3.599457078,-3.920113122,5.44870226,1
101.039714,-1.408306568,3.867203422,-1.290067681,4.313103791,1
101.049751,-1.501318812,3.258685443,-0.1983831632,3.593375136,1
101.059789,-1.556578508,2.550130667,0.6997199249,3.068503063,1
101.069827,-1.319027771,1.262684585,1.059607862,2.111155002,1
101.079864,-1.109615443,-0.2078223234,0.4842032504,1.228368567,1
101.089902,-1.275622281,-0.9632831705,-0.5556404382,1.692295177,1
101.09994,-1.412086646,-1.153652432,-0.9026107067,2.034602841,1
101.109977,-1.948742345,-1.66767736,1.089090693,2.786550383,1
101.120015,-1.761440532,-2.224125298,-1.295310295,3.118851528,1
101.130053,-1.225236239,-2.286889019,-1.895545692,3.213122889,1
101.140091,-0.6973184735,-2.184187061,-1.021734862,2.510153043,1
101.150128,0.1561343258,-2.134566127,-0.5029394835,2.198567398,1
101.160166,1.341889653,-2.189736069,1.513220819,2.980847051,1
101.170204,2.880620851,-2.534517725,4.543812227,5.947098968,1
101.180241,3.278835825,-3.079000506,9.882524185,10.85795988,1
101.190279,2.512317893,-3.42924083,14.97585131,15.56751606,1
101.200317,2.566876508,-4.704218309,12.60729393,13.69899213,1
101.2103543,3.092246788,-5.055457045,8.914850925,10.7048682,1
101.2203923,2.700896153,-4.043082114,6.175026934,7.859536287,1
101.2304303,1.902793316,-3.162485881,3.373495522,5.000241133,1
101.2404673,1.645150669,-2.729340518,0.04505221188,3.187138229,1
101.2505053,1.872656474,-2.539424123,-3.191209744,4.487687241,1
101.2605433,2.577039261,-2.228081671,-5.957644998,6.862872081,1
101.2705803,3.484469828,-1.478573289,-8.274659749,9.099324311,1
101.2806183,4.382676997,-0.2254893932,-10.14728026,11.05558682,1
101.2906563,4.221087146,0.8799602012,-11.87151072,12.63030774,1
101.3006933,2.011559421,1.224568048,-14.92581785,15.11045918,1
101.3107313,1.561070339,0.1531205977,-16.37378374,16.44874404,1
101.3207693,0.07745101254,-0.5542433922,-17.30149947,17.31054789,1
101.3308063,-0.7593945614,0.07092131719,-17.38263777,17.39936223,1
101.3408443,-0.8022378413,1.428826055,-16.81892175,16.89855787,1
101.3508823,-1.227721159,2.355608567,-17.67126336,17.86979965,1
101.3609203,-1.517620264,2.935730858,-18.32489553,18.62051243,1
101.3709573,-0.7664734199,3.814368858,-16.54623685,16.99749526,1
101.3809953,1.337616362,4.417466176,-12.64829695,13.46412421,1
101.3910333,5.276782343,3.341264792,-6.884328691,9.295292564,1
101.4010703,7.842906607,0.3143083431,0.5558579546,7.868859628,1
101.4111083,8.035916764,-3.928214147,8.488149778,12.33107908,1
101.4211463,6.484739914,-9.771303127,16.10364121,19.92128201,1
101.4311833,3.174959162,-14.32982052,24.12228589,28.23665699,1
101.4412213,-1.731383797,-13.44026255,31.43480676,34.23135147,1
101.4512593,-3.764853174,-8.691781987,36.07728315,37.30002082,1
101.4612963,-0.07459585369,-4.681637532,35.44613937,35.75404999,1
101.4713343,4.539801621,-2.337739622,31.31807529,31.73163508,1
101.4813723,6.70892567,-0.4898545843,26.5059969,27.34625226,1
101.4914093,6.034234752,0.538285756,20.23289111,21.12040775,1
101.5014473,2.439020852,0.8553757292,13.38110744,13.6284455,1
101.5114853,-1.364004554,0.8165095791,7.266047208,7.437918953,1
101.5215223,-3.329142053,0.6171170403,2.21868154,4.048032612,1
101.5315603,-4.007034906,0.5597454029,-1.554587531,4.334326481,1
101.5415983,-3.724713793,0.3428561676,-4.070704653,5.528261893,1
101.5516363,-2.619253235,-0.01316111399,-5.469682572,6.064494057,1
101.5616733,-1.530665402,-0.348746543,-6.494405946,6.681457125,1
101.5717113,-0.4449245062,-0.8101195957,-7.828558125,7.882929271,1
101.5817493,0.4984538651,-1.162432831,-9.486233822,9.570179647,1
101.5917863,0.964623937,-1.34699091,-11.30892789,11.42964277,1
101.6018243,0.8228258146,-1.416323247,-13.31971635,13.4200543,1
101.6118623,0.5084208827,-1.587663914,-15.31543654,15.40590033,1
101.6218993,0.1127561717,-1.6512939,-17.11428683,17.1941356,1
101.6319373,-0.2508364883,-1.552462945,-18.91235125,18.97762077,1
101.6419753,-0.834649177,-1.279544739,-20.74288292,20.79906406,1
101.6520123,-1.483711968,-0.8648686838,-22.61518944,22.68030406,1
101.6620503,-2.232061139,-0.2599748093,-23.80951832,23.9153266,1
101.6720883,-3.274654189,0.7409936661,-24.13732025,24.36970784,1
101.6821253,-3.91068361,1.732607766,-23.45292237,23.8397765,1
101.6921633,-4.085009281,2.277263917,-22.18686218,22.67443682,1
101.7022013,-2.768295838,1.606898184,-19.75780484,20.01540496,1
101.7122383,1.692229087,-2.116608597,-11.96932996,12.27226674,1
101.7222763,8.272984521,-8.610237302,-0.122106235,11.94124655,1
101.7323143,13.38365332,-14.26515148,11.17319881,22.52680835,1
101.7423513,17.15368654,-18.7458857,20.34195806,32.54923117,1
101.7523893,20.33710487,-19.76833684,30.96847728,41.99323233,1
101.7624273,21.48760068,-18.36688672,39.50220786,48.57451942,1
101.7724653,21.31607144,-14.44485162,44.76803252,51.64499371,1
101.7825023,19.42411477,-9.705205032,42.6850251,47.89048555,1
101.7925403,16.25456954,-7.045044091,31.8808581,36.47235653,1
101.8025783,12.5959059,-5.40111169,18.91277576,23.35641111,1
101.8126153,9.677789776,-3.706226943,8.782431956,13.58406582,1
101.8226533,7.413167247,-2.174523806,1.722803739,7.915279853,1
101.8326913,6.319009942,-1.431450432,-2.397878235,6.908600221,1
101.8427283,5.680096382,-1.32048592,-4.177197652,7.173294794,1
101.8527663,5.172034737,-1.808116077,-5.024614152,7.434108854,1
101.8628043,5.031365347,-2.727103373,-6.298116086,8.509876397,1
101.8728413,4.778477948,-3.57044144,-8.149261531,10.09912705,1
101.8828793,4.626877772,-4.719690042,-10.67697485,12.55712005,1
101.8929173,4.526894478,-5.583717896,-13.13001747,14.96890236,1
101.9029543,4.12707415,-6.654435468,-16.18277275,17.97766354,1
101.9129923,3.529289905,-7.567480531,-20.41683984,22.05833171,1
101.9230303,3.318419136,-7.349779336,-24.71756986,25.99979657,1
101.9330673,1.694315666,-5.507553819,-29.14854544,29.71264977,1
101.9431053,-2.108116101,-3.363169924,-33.77703295,34.00945487,1
101.9531433,-4.632571206,-1.805085758,-37.18802959,37.51890984,1
101.9631813,-3.546483643,-0.5450803667,-38.13942538,38.30783767,1
101.9732183,-0.3468680884,0.09222286999,-35.38504299,35.38686324,1
101.9832563,1.586138376,0.6289165753,-29.969836,30.01836839,1
101.9932943,1.171638614,0.3032848433,-25.19559144,25.22464165,1
102.0033313,0.2148939461,-0.4288084835,-23.23534513,23.24029517,1
102.0133693,0.3887468702,-1.148993078,-22.69621314,22.72860313,1
102.0234073,3.232479976,-4.448561961,-21.50362205,22.19559397,1
102.0334443,11.33040705,-11.16637511,-11.8515647,19.83748076,1
102.0434823,21.40424277,-20.00647289,7.026814812,30.12933276,1
102.0535203,25.03392528,-29.53982708,27.53038932,47.51022138,1
102.0635573,22.89596338,-33.92830978,45.08138247,60.89077425,1
102.0735953,22.24642894,-26.32210197,59.96984363,69.16746922,1
102.0836333,24.09876605,-14.79749252,68.09519531,73.73379099,1
102.0936703,23.98674275,-11.836597,62.01313677,67.53590148,1
102.1037083,21.70780682,-10.49009082,47.46738326,53.23930273,1
102.1137463,13.56253251,-6.401087308,28.38144454,32.10019628,1
102.1237843,7.686228125,-4.992257999,13.91196211,16.65963483,1
102.1338213,5.571327646,-2.678123587,5.507425765,8.279116875,1
102.1438593,4.355105913,-0.648837162,0.4961736703,4.431041129,1
102.1538973,2.984638432,0.103979428,-2.627013659,3.977446299,1
102.1639343,2.204381298,-0.04482175849,-4.795592748,5.278164046,1
102.1739723,2.658566989,-0.7466354983,-6.70654293,7.25280367,1
102.1840103,3.517835502,-1.326462798,-8.542006727,9.332767495,1
102.1940473,4.220847702,-2.050986173,-9.72818342,10.80090979,1
102.2040857,4.381646717,-2.956661552,-10.71403216,11.94701472,1
102.2141237,4.30278035,-3.566381133,-13.00263822,14.15279456,1
102.2241607,4.495295539,-3.863372911,-16.74467848,17.7628148,1
102.2341987,4.424520841,-3.955427966,-20.56095031,21.40033815,1
102.2442367,3.805141952,-4.095712025,-23.35834482,24.01803978,1
102.2542737,1.399090186,-3.933001555,-27.06453464,27.38457576,1
102.2643117,-2.017806879,-2.806666729,-32.75280893,32.93471445,1
102.2743497,-4.373772564,-0.9146439841,-38.03922749,38.30077399,1
102.2843867,-4.147942571,0.5101613796,-39.39427762,39.61533543,1
102.2944247,-2.446973796,2.396939172,-36.33214691,36.49325825,1
102.3044627,-0.2083552971,3.801231626,-31.87119148,32.09775102,1
102.3144997,1.216429747,3.837518862,-27.55841854,27.85090096,1
102.3245377,1.892317445,3.282409643,-24.73906657,25.02751472,1
102.3345757,4.025263893,0.6467403504,-23.7141783,24.06207129,1
102.3446127,8.104586465,-6.462692403,-18.24589146,20.98483428,1
102.3546507,15.96553933,-14.32086258,-8.933504713,23.23344696,1
102.3646887,23.15999323,-21.51891837,2.335655674,31.70022747,1
102.3747267,28.7167847,-33.87037323,10.63486086,45.6613203,1
102.3847637,29.2239067,-39.71432146,17.59079865,52.35169767,1
102.3948017,33.69182031,-31.8539843,41.22595768,62.04349006,1
102.4048397,36.20584939,-23.51818431,63.86908979,77.09234174,1
102.4148767,26.91503536,-20.17098313,63.68905169,72.0248776,1
102.4249147,16.5873416,-20.09017929,44.72730783,51.76183219,1
102.4349527,10.9346979,-18.09094024,24.98628684,32.72864597,1
102.4449897,7.60545001,-12.86935211,12.33068087,19.37804903,1
102.4550277,6.422507413,-6.920643409,5.439869374,10.8966089,1
102.4650657,6.443770228,-2.904282486,1.811214225,7.296405175,1
102.4751027,5.919069162,-1.173240605,-0.3336123043,6.043440281,1
102.4851407,4.545864599,-0.464134583,-1.369651794,4.77035134,1
102.4951787,3.535840541,-0.5047641803,-2.022115692,4.104376576,1
102.5052157,3.836032207,-1.154640904,-3.314373155,5.199366127,1
102.5152537,4.769163626,-1.881064332,-5.211862462,7.310734233,1
102.5252917,6.205787382,-3.219689192,-7.642778635,10.35810122,1
102.5353297,5.966859625,-5.214793671,-10.80838634,13.4021902,1
102.5453667,1.614525585,-7.023542125,-14.55178199,16.23857124,1
102.5554047,-4.328315725,-8.546946455,-20.08413327,22.25212394,1
102.5654427,-9.112010851,-8.976417428,-25.70691173,28.7132395,1
102.5754797,-10.72500739,-7.815090818,-29.68736637,32.51832022,1
102.5855177,-8.675278805,-6.16522817,-31.30546635,33.06512853,1
102.5955557,-5.028835841,-3.851429388,-30.7235725,31.36974028,1
102.6055927,-2.77091656,-1.591789856,-28.94626687,29.12212456,1
102.6156307,-2.056259046,-0.9494854957,-25.81290304,25.91207609,1
102.6256687,-2.268490608,-1.404690357,-22.81340771,22.9689089,1
102.6357057,-2.889947452,-2.203958836,-20.61030783,20.92830666,1
102.6457437,-3.500287716,-3.01435866,-18.78434634,19.34399234,1
102.6557817,-3.62056962,-3.779629673,-17.34086761,18.11352572,1
102.6658187,-2.887370877,-5.026551919,-15.61011048,16.65168712,1
102.6758567,-1.469417573,-6.948632276,-12.97990191,14.79596337,1
102.6858947,-0.4892219156,-8.330502412,-10.82934043,13.67154792,1
102.6959317,1.079224394,-10.60393494,-9.293489714,14.14132641,1
102.7059697,3.814591052,-15.3892249,-6.961188002,17.31581607,1
102.7160077,9.542093443,-20.60691879,-0.3908121067,22.71231787,1
102.7260447,18.22911112,-22.10796687,12.92645134,31.43494609,1
102.7360827,28.66965147,-20.44738335,29.20573823,45.74953056,1
102.7461207,35.47161686,-15.49602429,44.8102541,59.21419799,1
102.7561587,32.04291485,-12.16327626,50.01821471,60.63427648,1
102.7661957,23.29086795,-11.02632611,44.33201735,51.27740398,1
102.7762337,14.40183249,-9.372313104,35.37692939,39.32912617,1
102.7862717,9.105216386,-7.4588685,27.3495747,29.77480346,1
102.7963087,6.68744417,-3.950554896,21.05690647,22.44375422,1
102.8063467,5.565530131,-0.2877429441,16.59007576,17.50110098,1
102.8163847,5.290465997,1.178170392,12.36106534,13.49714979,1
102.8264217,5.132101178,0.9951966888,7.875331757,9.452498571,1
102.8364597,5.0090781,0.3976461862,4.063051817,6.461994736,1
102.8464977,4.722776202,-0.3679341446,0.9090110689,4.823514456,1
102.8565347,4.576480913,-1.342269284,-1.943598695,5.150091287,1
102.8665727,4.653070082,-2.51093415,-4.220012135,6.764935618,1
102.8766107,5.232969157,-4.318041582,-6.171678818,9.171644822,1
102.8866477,6.13706798,-6.672288771,-8.396366034,12.35645594,1
102.8966857,7.255726873,-9.874878366,-11.32302084,16.68441177,1
102.9067237,7.388911827,-13.17553571,-15.67271779,21.76751805,1
102.9167617,5.182798877,-14.5387158,-20.95042633,26.02222175,1
102.9267987,0.1617720649,-13.50456906,-26.44060866,29.69015564,1
102.9368367,-2.515631218,-10.91541963,-31.60964553,33.53571941,1
102.9468747,-7.44041001,-6.158102753,-36.02621123,37.29838906,1
102.9569117,-9.737041951,-4.904619054,-37.73418526,39.27765283,1
102.9669497,-8.621856304,-4.647116155,-35.14454467,36.48384731,1
102.9769877,-6.183558022,-3.796442464,-28.5434592,29.45128907,1
102.9870247,-3.509197995,-2.964295092,-22.41841426,22.88420446,1
102.9970627,-0.5101336053,-1.510157463,-19.11347676,19.17982809,1
103.0071007,2.24498641,0.0598895216,-17.95437618,18.0942857,1
103.0171377,3.927369809,1.725997196,-17.8452496,18.35364359,1
103.0271757,4.898932929,4.282829357,-19.33134869,20.39713738,1
103.0372137,5.49821757,6.429555062,-22.58358407,24.11613245,1
103.0472507,7.135430936,5.678521727,-26.04327398,27.59369681,1
103.0572887,12.01862901,-1.48996922,-25.83802268,28.53543179,1
103.0673267,20.16856472,-18.12446116,-9.198336219,28.63348537,1
103.0773637,23.62823826,-33.16298409,35.82339471,54.23460856,1
103.0874017,27.75004817,-40.13344987,70.0634102,85.37939108,1
103.0974397,19.58392268,-26.76914266,81.39019197,87.88902307,1
103.1074767,11.88980432,-18.84005862,67.16291057,70.76137231,1
103.1175147,5.179133842,-16.50384804,47.86456824,50.89417767,1
103.1275527,3.972587205,-11.40410535,31.45909376,33.69732405,1
103.1375907,4.74225854,-6.616250226,23.0744625,24.46823661,1
103.1476277,4.819825656,-3.227353722,19.58173114,20.42279917,1
103.1576657,4.195178425,-1.916269248,15.14229113,15.8291058,1
103.1677037,3.704944649,-1.366233951,8.768823146,9.616936593,1
103.1777407,3.436139375,-0.9580141713,2.89267664,4.592648811,1
103.1877787,4.156696145,-0.7087111153,-1.9559065,4.648221652,1
103.1978167,5.410373095,-0.6430487839,-5.657765281,7.854677379,1
103.207854,6.173144131,-1.001397588,-8.267478783,10.36637405,1
103.217892,7.144209945,-1.292947142,-10.18111459,12.50466083,1
103.22793,9.003855488,-1.126931534,-11.84894047,14.92436862,1
103.237967,10.04087614,-1.12344864,-13.14619438,16.58022187,1
103.248005,10.11510888,-2.005792459,-14.27773118,17.61227523,1
103.258043,9.798989693,-3.025489419,-15.34705127,18.45821681,1
103.26808,9.541585904,-3.867298146,-16.18150274,19.17912634,1
103.278118,9.430998684,-4.513946403,-17.22298072,20.14821365,1
103.288156,9.370006962,-4.624414048,-18.44618549,21.20009422,1
103.298193,9.013601042,-4.20691788,-19.72963062,22.09528199,1
103.308231,7.626205287,-3.876325955,-20.74469088,22.43940975,1
103.318269,5.894830114,-3.679695495,-21.31740928,22.4214433,1
103.328307,6.015234225,-1.347470674,-23.56769151,24.3605173,1
103.338344,5.083305579,-2.056054393,-26.61482294,27.17381378,1
103.348382,5.41270321,-2.532282626,-26.4554793,27.12198732,1
103.35842,6.815081871,-1.925733697,-24.62633693,25.62440754,1
103.368457,8.840067376,-2.048933362,-22.69132019,24.43851327,1
103.378495,10.95395863,-2.082962403,-21.3494988,24.08586808,1
103.388533,11.85418659,-2.122203652,-20.76402879,24.00354932,1
103.39857,11.71819907,-1.948242993,-21.22495311,24.32304411,1
103.408608,13.1100773,-3.075055974,-22.73581516,26.42437108,1
103.418646,16.03684613,-8.424979384,-23.68050302,29.81487774,1
103.428683,20.48546042,-19.74560989,-19.57509572,34.53588816,1
103.438721,22.48701146,-34.7073273,0.01971564174,41.35534598,1
103.448759,32.59101882,-51.94645336,24.91269379,66.19101779,1
103.458796,32.06766963,-54.77147245,54.80722934,83.8575102,1
103.468834,24.43466052,-42.23318969,59.15153749,76.67854546,1
103.478872,18.3245061,-31.52472525,61.47356506,71.47443618,1
103.488909,14.13612214,-23.61875642,64.39348213,70.02996605,1
103.498947,14.33225764,-16.95975895,52.56348897,57.06108486,1
103.508985,14.49232399,-11.56737365,36.67373189,41.09494128,1
103.519023,12.27723031,-6.450835419,23.34866651,27.15702284,1
103.52906,9.800311748,-2.417499444,14.10752575,17.34683535,1
103.539098,7.018245717,0.119230282,9.560274775,11.86038965,1
103.549136,4.208077968,2.086840276,8.685491552,9.874238504,1
103.559173,2.596698185,3.204106947,8.364426203,9.325919178,1
103.569211,2.232011146,3.260178822,6.680885348,7.761756807,1
103.579249,2.790004503,2.731616839,3.729874545,5.399798127,1
103.589286,3.598049068,2.058541799,-0.1625648743,4.148491144,1
103.599324,4.736470381,1.397810231,-4.04350399,6.38262874,1
103.609362,5.240308582,0.4173103724,-7.007269324,8.759954644,1
103.619399,4.15724286,-1.19896353,-9.434572502,10.37937089,1
103.629437,2.823106761,-3.216004277,-11.92506186,12.66963755,1
103.639475,1.819269934,-4.557776255,-14.75762386,15.55218729,1
103.649512,1.55129511,-5.031258928,-17.25092106,18.03647305,1
103.65955,2.514124975,-6.111626744,-19.15129187,20.25943697,1
103.669588,3.150138316,-7.479757093,-21.64390845,23.1155556,1
103.679625,1.169878017,-7.447840651,-24.85348254,25.97180278,1
103.689663,-3.539024058,-6.059676572,-28.89566506,29.73556508,1
103.699701,-7.556291299,-4.654871317,-32.96548854,34.13925599,1
103.709738,-7.355355241,-3.07677681,-34.56976337,35.47726519,1
103.719776,-3.4629664,-1.304524922,-32.4935738,32.70361233,1
103.729814,-0.8262618577,0.002315205038,-28.11014309,28.12228403,1
103.739852,-0.4969835097,-0.09187963843,-23.80081532,23.80618081,1
103.749889,0.003065695167,-0.4796927083,-22.55049585,22.55559747,1
103.759927,2.431841495,-0.25552654,-25.72647652,25.84242134,1
103.769965,3.473575881,1.013227455,-26.42459197,26.67117207,1
103.780002,7.033922687,2.120196303,-26.72182231,27.71330165,1
103.79004,11.88060548,2.088438028,-26.01654051,28.67700717,1
103.800078,16.8499728,-2.916012001,-24.92460807,30.22682248,1
103.810115,24.64539651,-20.26572674,-22.45113294,39.01472311,1
103.820153,34.09019345,-43.36341906,-15.26115333,57.23137429,1
103.830191,41.15064086,-60.66594764,0.6891282785,73.30898543,1
103.840228,38.81201188,-66.36283371,18.66552624,79.11257697,1
103.850266,36.53618433,-53.08014895,39.65491374,75.66311626,1
103.860304,46.00746916,-23.05007026,75.34284718,91.23890387,1
103.870341,44.74409168,-7.087924647,80.87582411,92.69935998,1
103.880379,30.51392643,-12.57941909,48.35173486,58.54256362,1
103.890417,20.6696828,-17.47588683,22.42297509,35.14871576,1
103.900455,14.06069189,-14.95088837,11.62227666,23.5862128,1
103.910492,7.72046942,-8.788593167,5.816956311,13.06453209,1
103.92053,5.716038632,-3.693122164,3.865348685,7.826440405,1
103.930568,6.012604732,-1.034782631,2.953835008,6.778446135,1
103.940605,6.14452318,1.39969128,2.759664178,6.879683653,1
103.950643,6.085305503,2.755153929,3.3165261,7.457959614,1
103.960681,5.836898825,2.993935797,3.775883946,7.569038184,1
103.970718,5.983817135,2.600232242,2.803976133,7.101377146,1
103.980756,7.36772795,2.335494876,-0.05597539544,7.729235713,1
103.990794,9.07643873,2.216486496,-4.116571382,10.2098341,1
104.000831,9.660616504,1.494538381,-7.744792668,12.47168672,1
104.010869,9.754154997,0.3684456298,-10.47694043,14.31941244,1
104.020907,9.776620585,-1.282610727,-11.89833541,15.45308338,1
104.030944,9.539953946,-3.229367504,-12.21119419,15.8288597,1
104.040982,8.670222133,-5.329378048,-12.16654251,15.86189708,1
104.05102,7.439500183,-7.522490884,-12.8274685,16.62762702,1
104.061057,5.979137608,-8.48645467,-15.09444921,18.31972698,1
104.071095,4.582950857,-7.975381125,-18.6122125,20.76113188,1
104.081133,4.063737403,-6.760934315,-22.08173626,23.44839591,1
104.09117,5.632017651,-4.857846299,-23.89215585,25.02305746,1
104.101208,7.212035893,-2.454747377,-24.97598873,26.11205199,1
104.111246,7.169210885,-0.576475237,-26.83391109,27.78108517,1
104.121283,6.180882336,0.8103790659,-28.52975332,29.2028568,1
104.131321,5.223757453,1.515262375,-28.9790908,29.48510413,1
104.141359,4.73346959,0.4667478499,-28.24239308,28.64011792,1
104.151397,4.109517885,-1.805304444,-26.89047472,27.26251808,1
104.161434,3.250040334,-2.990170483,-24.80318245,25.19328763,1
104.171472,2.270304269,-4.935995505,-23.73797179,24.35178921,1
104.18151,1.594154762,-9.323870677,-23.17824122,25.03411193,1
104.191547,2.580290021,-16.48492294,-19.92338161,25.98753001,1
104.201585,6.046517413,-25.22180567,-10.28858057,27.90259386,1
104.211623,9.511533555,-32.30511336,4.782566321,34.01415235,1
104.22166,12.47314945,-36.59929684,15.67760022,41.72379579,1
104.231698,17.17842026,-36.63941342,29.21426113,49.91009709,1
104.241736,23.22496983,-30.80422198,48.6587324,62.09646974,1
104.251773,29.81002458,-20.68062411,60.13653605,70.2333877,1
104.261811,31.13370556,-17.16107274,55.5785379,65.97563122,1
104.271849,22.17213655,-15.37858647,41.0095686,49.09062312,1
104.281886,10.33457711,-13.56261904,26.71314972,31.69133142,1
104.291924,4.656081691,-9.13738075,16.84634285,19.72232469,1
104.301962,2.898508068,-4.614105407,9.482233157,10.93636427,1
104.312,3.474619901,-1.480177619,5.023076919,6.284521539,1
104.322037,4.803964499,0.9876178202,3.493900217,6.021694329,1
104.332075,5.87459524,2.519823379,3.726555666,7.39916186,1
104.342113,6.106751336,3.280894337,4.087622986,8.04769167,1
104.35215,5.616655262,3.022577214,3.429021267,7.241614198,1
104.362188,4.980693376,1.760038662,1.668184313,5.539664385,1
104.372226,4.697755381,0.1895847116,-1.151907331,4.8406341,1
104.382263,5.194755263,-1.152614405,-4.69795711,7.098225357,1
104.392301,6.28508732,-2.40138481,-8.484727988,10.8286463,1
104.402339,6.122134191,-3.67836233,-11.38200405,13.43729484,1
104.412376,4.851515811,-5.039232191,-13.26828541,14.99928213,1
104.422414,3.672273332,-6.200599732,-14.61298012,16.29331815,1
104.432452,2.867007363,-7.399609308,-15.94635345,17.8117977,1
104.442489,2.28967624,-7.811739779,-18.38251399,20.10429597,1
104.452527,1.890006771,-6.416832106,-20.74813138,21.79983522,1
104.462565,0.5820242447,-4.503666413,-22.3509561,22.80760843,1
104.472602,-1.974398611,-2.897103859,-23.47110487,23.73150278,1
104.48264,-5.772447891,-1.688232661,-25.2679519,25.97384602,1
104.492678,-9.909405005,-0.6361408103,-28.36579506,30.0536073,1
104.502715,-12.00492664,0.07937185943,-30.11984982,32.42421806,1
104.512753,-10.42573286,1.495806057,-28.79418546,30.66004661,1
104.522791,-6.23660864,3.184568184,-25.97413417,26.90153169,1
104.532829,-2.236496545,3.649826455,-23.70837552,24.09170438,1
104.542866,-0.3337114146,3.587180264,-23.1173834,23.39642368,1
104.552904,-0.2154599565,3.453104194,-23.99576149,24.24390483,1
104.562942,0.8644767742,2.299168464,-24.16207502,24.28660876,1
104.572979,4.065344802,-0.6781697193,-22.7710154,23.1410044,1
104.583017,10.29049261,-6.019693896,-20.05248346,23.32880292,1
104.593055,20.48985519,-13.90257382,-11.07820494,27.12641424,1
104.603092,30.71767383,-25.77960666,4.320954958,40.33403348,1
104.61313,37.33136122,-42.17973211,23.83825622,61.16390104,1
104.623168,34.53205117,-44.48145347,45.83772215,72.60963457,1
104.633205,25.63234102,-32.54638819,57.56416346,70.9219092,1
104.643243,20.92768768,-24.201097,59.30145075,67.38192093,1
104.653281,14.22720188,-19.18147988,53.80667251,58.86850134,1
104.663318,8.711473655,-15.37349004,41.57031658,45.16995893,1
104.673356,8.278428279,-12.07799228,26.17218404,29.98988979,1
104.683394,9.851678953,-8.647225619,12.56801468,18.15998574,1
104.693431,10.61916577,-5.212039633,3.11754769,12.23319837,1
104.703469,9.729881451,-1.708863392,-1.470886978,9.987708228,1
104.713507,8.113895817,0.2462360452,-3.683562258,8.914290125,1
104.723545,7.471074563,0.548754757,-4.827845989,8.912136882,1
104.733582,7.838794845,0.8070041261,-4.905460761,9.282322207,1
104.74362,7.873986897,0.3290212899,-6.068262624,9.946443381,1
104.753658,7.734933093,-1.065643651,-7.642129594,10.92551743,1
104.763695,7.396683946,-2.329709933,-9.579325588,12.32485134,1
104.773733,6.782655551,-3.621247312,-11.33118356,13.69355941,1
104.783771,5.7926202,-4.810960692,-12.46860266,14.56591376,1
104.793808,4.524958757,-5.993367977,-13.47143523,15.42320584,1
104.803846,3.737363074,-7.07127587,-14.83177474,16.85088624,1
104.813884,3.642379734,-7.474270066,-16.18985022,18.20007949,1
104.823921,3.49615198,-7.87834892,-17.52423746,19.52921808,1
104.833959,2.958852211,-8.152545328,-18.90472999,20.79922156,1
104.843997,2.704468217,-7.812718018,-20.01415379,21.65453909,1
104.854034,1.859651828,-7.003315437,-21.42649494,22.61856356,1
104.864072,0.02789531171,-6.200322574,-23.54315426,24.34594197,1
104.87411,-2.570671936,-5.408490876,-26.21708832,26.8923009,1
104.884147,-4.489594504,-4.795288693,-28.80281128,29.54239648,1
104.894185,-4.661976854,-4.569240013,-30.23967565,30.93622417,1
104.904223,-3.262949232,-4.485202661,-29.66239408,30.17650581,1
104.91426,-1.172467457,-4.042825713,-27.32905799,27.65133867,1
104.924298,1.111162324,-3.498234758,-24.06009724,24.33845943,1
104.934336,1.933716901,-2.866711494,-21.0959495,21.37747368,1
104.944373,2.226828758,-4.36590192,-22.21374066,22.74797002,1
104.954411,4.747150905,-9.228540012,-19.60761677,22.18468002,1
104.964449,9.695165362,-17.42753971,-9.726285998,22.18819531,1
104.974487,16.35736827,-24.56065866,4.041377943,29.78459646,1
104.984524,21.52619698,-30.02339416,17.94980132,41.07282216,1
104.994562,24.23059269,-33.88806222,35.20236194,54.54107323,1
105.0046,26.2056535,-32.65433948,51.68151368,66.51331459,1
105.014637,24.6546164,-24.82905989,61.29571615,70.5797219,1
105.024675,23.29621933,-16.40852322,63.77966014,69.85555466,1
105.034713,24.0269061,-11.125613,58.56839234,64.27540791,1
105.04475,22.30128518,-7.085534306,44.7399846,50.4897845,1
105.054788,16.67161401,-4.098578914,27.93601301,32.78966127,1
105.064826,11.06575505,-2.780687842,14.7242924,18.62761247,1
105.074863,6.469708477,-1.037028108,5.562659149,8.595099294,1
105.084901,3.940062068,0.7303424511,-0.03988502741,4.007378196,1
105.094939,3.276568567,1.799884367,-2.030719285,4.254327929,1
105.104976,3.112482247,1.914228424,-2.415326326,4.380138977,1
105.115014,3.96651107,1.650051367,-3.258152177,5.391793319,1
105.125052,5.105136743,0.7789382219,-4.657620678,6.954322131,1
105.13509,5.538965061,-1.172479736,-6.3590622,8.514253622,1
105.145127,4.110925603,-3.458435393,-7.810173894,9.479414588,1
105.155165,1.303323027,-5.897284191,-9.294113612,11.08409489,1
105.165203,-0.7550798278,-8.206147338,-11.67114769,14.28729114,1
105.17524,-2.256453823,-10.460891,-14.79215752,18.2573204,1
105.185278,-3.411762625,-12.1630564,-17.32127242,21.43843612,1
105.195316,-4.58864546,-13.2411286,-19.63993667,24.12696139,1
105.205353,-5.863141714,-14.18197484,-21.89788343,26.7398979,1
105.21539,-9.001521864,-15.14111935,-24.35381224,30.05643128,1
105.225428,-13.47550021,-15.43990505,-27.4719312,34.27370388,1
105.235465,-17.06678405,-14.71099817,-29.63770012,37.23012024,1
105.245503,-19.03420372,-13.81078189,-29.59736602,37.8026809,1
105.255541,-19.88643189,-13.22685087,-28.25430269,36.9962887,1
105.265578,-19.68137004,-13.19817847,-26.98333786,35.91168004,1
105.275616,-19.0619546,-13.56584203,-25.90971422,34.90993375,1
105.285654,-18.32572817,-14.37052649,-24.23557452,33.61112044,1
105.295691,-17.75081823,-15.47127419,-21.76372491,32.06417932,1
105.305729,-16.60063232,-16.1416411,-19.34750338,30.17382074,1
105.315767,-13.90796262,-16.69886438,-18.25486693,28.38174876,1
105.325805,-8.902447811,-17.65613661,-18.1120522,26.81490578,1
105.335842,-2.412941247,-19.92195022,-16.66891494,26.08752788,1
105.34588,6.065584599,-26.44766274,-13.33287726,30.23302494,1
105.355918,19.52744442,-36.12718563,-6.124968921,41.52119786,1
105.365955,34.15183948,-43.82176592,8.638225585,56.2255658,1
105.375993,42.71473363,-53.62308865,29.4504863,74.61444397,1
105.386031,41.08535787,-52.88403801,55.99198282,87.29163905,1
105.396068,30.9593182,-40.09686969,76.87817164,92.0678642,1
105.406106,25.11880346,-32.8176756,81.56933195,91.44129283,1
105.416144,21.43472314,-29.19847599,69.15242804,78.06443915,1
276.0676698,-5.665936764,-3.348680231,-10.59378768,12.47176155,1
276.0777078,-6.345011925,-3.601362686,-10.38894919,12.69485151,1
276.0877458,-7.119215437,-3.870216784,-9.598657653,12.56168918,1
276.0977828,-7.659279478,-4.323105271,-8.933974244,12.53673391,1
276.1078208,-7.436965415,-4.828085433,-8.804081857,12.49522792,1
276.1178588,-6.480938054,-5.0408507,-8.904577952,12.11215267,1
276.1278968,-4.84887667,-5.136904081,-9.080052309,11.50420525,1
276.1379348,-2.392808699,-4.423306375,-8.746790253,10.08947533,1
276.1479728,0.05367977858,-2.729413901,-7.40168507,7.889076222,1
276.1580108,2.25624113,-1.484795457,-4.386400504,5.151286341,1
276.1680488,3.732984679,-1.49419398,0.7069897681,4.082600249,1
276.1780858,4.286900774,-2.559093572,6.530900758,8.220653433,1
276.1881238,4.659219014,-2.934752327,11.91849193,13.12903435,1
276.1981618,6.313901814,-2.6692557,16.06007946,17.46185655,1
276.2081998,9.026440358,-2.226891031,18.58993344,20.78512195,1
276.2182378,10.55044344,-2.09809602,18.83988086,21.69458399,1
276.2282758,9.566279866,-2.125457481,17.04486284,19.6610943,1
276.2383138,7.048713219,-2.035094172,12.9782296,14.90840065,1
276.2483518,4.631778324,-1.565644031,8.432699463,9.747565435,1
276.2583888,2.859365637,-0.9150313622,5.621019623,6.372528215,1
276.2684268,1.97924186,-0.7221622695,4.837945885,5.276801784,1
276.2784648,1.987895739,-0.5921880211,5.289261471,5.681434945,1
276.2885028,1.878278572,-0.5556449698,5.966147434,6.279457535,1
276.2985408,1.126208818,-0.5976728556,6.337163208,6.464147017,1
276.3085788,-0.05616689175,-0.745308765,6.012260331,6.058540597,1
276.3186168,-1.315871151,-0.936465793,4.911284587,5.170029146,1
276.3286548,-2.119304602,-1.262096063,3.109825857,3.969301618,1
276.3386918,-2.536451399,-1.428862454,0.9778000528,3.071046492,1
276.3487298,-2.607452384,-1.53817235,-0.9760032034,3.180780465,1
276.3587678,-2.591082812,-1.431349275,-2.784185062,4.063761477,1
276.3688058,-2.627587271,-1.389588753,-4.304144797,5.230758473,1
276.3788445,-2.513867113,-1.528263074,-5.460348662,6.202461076,1
276.3888825,-2.274989643,-1.581156402,-6.341233454,6.920034333,1
276.3989205,-1.802738101,-1.657045367,-6.772742182,7.201784548,1
276.4089585,-1.012356805,-1.717965168,-6.907016473,7.189099191,1
276.4189955,-0.1098653814,-1.782038957,-7.232039217,7.449169383,1
276.4290335,0.5421202138,-1.833261736,-7.286080939,7.532709895,1
276.4390715,0.8929212856,-1.79861289,-6.699695256,6.994157081,1
276.4491095,0.8434500405,-1.860669975,-5.754720302,6.106578951,1
276.4591475,0.5132533872,-1.849518457,-4.761071371,5.133414864,1
276.4691855,0.2410546812,-1.812038974,-3.80419441,4.220602767,1
276.4792235,0.1946850917,-1.671926531,-2.934724553,3.383171413,1
276.4892615,0.1401352474,-1.56266429,-2.146312891,2.65861178,1
276.4992985,0.09460444093,-1.548823346,-1.340961846,2.050849197,1
276.5093365,0.2621593291,-1.497314054,-0.7484512049,1.694360084,1
276.5193745,0.4479896897,-1.31148457,-0.3392057508,1.42679609,1
276.5294125,0.834821012,-1.158441594,-0.4029953653,1.483684034,1
276.5394505,1.377682068,-0.8531350762,-0.9824655461,1.895016065,1
276.5494885,1.49145836,-0.4289877006,-1.852357573,2.416548585,1
276.5595265,1.534550292,0.08524158686,-2.311626542,2.775919307,1
276.5695645,1.882119608,0.5457285306,-1.571518144,2.511944093,1
276.5796015,2.164003057,0.3523540923,0.3614602536,2.222097242,1
276.5896395,2.364878304,-0.470633617,3.056566494,3.893166336,1
276.5996775,2.354114165,-1.695679675,5.963336678,6.63163384,1
276.6097155,1.956487128,-2.633170193,8.210235711,8.841345915,1
276.6197535,0.825125159,-2.888101779,8.761242231,9.261821033,1
276.6297915,-0.9716347486,-2.894058337,7.32989471,7.940214368,1
276.6398295,-2.884572984,-2.671788713,5.123228613,6.458071512,1
276.6498665,-4.388523628,-2.529545252,3.426658992,6.115531919,1
276.6599045,-4.684852623,-2.36682835,2.714440643,5.909137716,1
276.6699425,-3.524162482,-2.031748687,2.753193065,4.912005291,1
276.6799805,-1.670678443,-1.5525546,3.157017565,3.894656873,1
276.6900185,-0.02578139707,-1.068450899,3.061778702,3.242952485,1
276.7000565,1.238591133,-0.567521688,2.408333641,2.766994722,1
276.7100945,2.081704374,-0.08567121103,1.669760138,2.670005913,1
276.7201325,2.621690647,0.2796119522,0.7169703805,2.732305111,1
276.7301695,2.805052605,0.5555723181,-0.5551258832,2.912927302,1
276.7402075,2.777693776,0.7542463803,-1.853674951,3.423533428,1
276.7502455,2.74378548,1.023326912,-2.852952411,4.088385279,1
276.7602835,2.429580961,1.2026138,-3.512196155,4.436740406,1
276.7703215,1.78745114,1.112335276,-3.84641657,4.384882185,1
276.7803595,0.9779567581,0.9028584825,-3.793459507,4.020185057,1
276.7903975,0.1748992833,0.6513824549,-3.670397252,3.731850058,1
276.8004355,-0.3844725555,0.3415433215,-3.56167354,3.598609369,1
276.8104725,-0.885402351,0.04272662804,-3.351517008,3.466760612,1
276.8205105,-1.354625327,-0.2395151094,-3.24938837,3.528583575,1
276.8305485,-1.512648962,-0.3583441262,-3.441563544,3.77635764,1
276.8405865,-1.539126323,-0.324170659,-3.764038657,4.079458722,1
276.8506245,-1.739761249,-0.291525654,-4.347828761,4.692054065,1
276.8606625,-1.906514192,-0.2997728594,-5.350579467,5.688001474,1
276.8707005,-1.818933719,0.04423184752,-6.175312278,6.437775863,1
276.8807385,-1.651696042,0.3515489307,-6.238810701,6.463315359,1
276.8907755,-1.313311533,0.4102312946,-5.249587528,5.426900231,1
276.9008135,-0.7112860098,0.5167636169,-3.350230621,3.463671121,1
276.9108515,0.1095712665,0.3010048677,-0.7337314242,0.800607017,1
276.9208895,0.8796378735,-0.2224894792,2.429381863,2.59329146,1
276.9309275,1.418086913,-0.9076102223,5.810800363,6.049803936,1
276.9409655,2.056427738,-1.48222356,8.731399797,9.091931815,1
276.9510035,2.623624906,-1.859036847,11.07668116,11.53396251,1
276.9610415,2.601774153,-2.183576466,12.52353608,12.97598516,1
276.9710785,1.819264379,-2.571016045,12.51140778,12.9017507,1
276.9811165,0.728197327,-2.586153609,11.10883266,11.42911304,1
276.9911545,-0.139992283,-2.226249738,9.093136624,9.362741019,1
277.0011925,-0.6767190251,-1.779600961,7.217080286,7.463991966,1
277.0112305,-0.8603446931,-1.457323484,5.939708079,6.176092356,1
277.0212685,-0.7937358436,-1.232712781,5.106030782,5.312358021,1
277.0313065,-0.679394711,-1.008686288,4.389351009,4.554714862,1
277.0413445,-0.5879825574,-0.6875262145,3.560382475,3.673518633,1
277.0513815,-0.5869639724,-0.4511327143,2.473471039,2.581880402,1
277.0614195,-0.6784977481,-0.3503154606,1.168902263,1.396213672,1
277.0714575,-0.8884092817,-0.2946485057,-0.004909906983,0.9360090282,1
277.0814955,-1.24810046,-0.2560498658,-1.020346148,1.632305901,1
277.0915335,-1.591404817,-0.3018933521,-2.065406138,2.624806926,1
277.1015715,-1.797417427,-0.4250994484,-3.029875708,3.548459631,1
277.1116095,-1.720182725,-0.5884969662,-4.008960979,4.40194564,1
277.1216475,-1.438359794,-0.6330352078,-4.956864803,5.200011649,1
277.1316845,-1.179647984,-0.6905507599,-5.920884722,6.076619588,1
277.1417225,-1.137759408,-0.7887528464,-6.911856213,7.049140645,1
277.1517605,-1.314200017,-0.9002439,-7.957865206,8.115736529,1
277.1617985,-1.433880242,-0.9091373688,-9.166028599,9.321943122,1
277.1718365,-1.552706189,-0.758887023,-10.33689026,10.48036766,1
277.1818745,-1.85181846,-0.6630245537,-11.35518287,11.5242792,1
277.1919125,-2.229250383,-0.629428499,-12.13100664,12.3501846,1
277.2019505,-2.484800896,-0.3950191784,-12.3653268,12.61869971,1
277.2119875,-2.309899274,-0.08789885402,-11.78518126,12.00974014,1
277.2220255,-1.856441268,0.1079293683,-9.825318536,9.99974536,1
277.2320635,-0.7307244936,-0.008362541646,-6.62285758,6.663052659,1
277.2421015,0.8476924878,-0.4062307759,-2.774989731,2.929876107,1
277.2521395,2.271639773,-1.093192807,1.194294966,2.789580298,1
277.2621775,2.960220167,-1.934328958,5.286945389,6.360528555,1
277.2722155,2.747473611,-2.784496719,9.054963661,9.86379238,1
277.2822535,1.890120061,-3.556944897,11.38661282,12.07805292,1
277.2922905,0.9555411646,-3.854628107,12.31592016,12.94036731,1
277.3023285,0.1157345241,-3.870893307,12.18284689,12.78354285,1
277.3123665,-0.7781696784,-3.719373531,11.37247893,11.99051978,1
277.3224045,-1.572393472,-3.090011982,10.27703466,10.84610698,1
277.3324425,-1.720310487,-2.21127765,9.100796476,9.522274598,1
277.3424805,-0.9033626586,-1.471038421,7.560523514,7.755097287,1
277.3525185,0.4187939572,-0.7330624297,5.587676461,5.651096985,1
277.3625565,1.69628457,-0.3166464619,3.341331743,3.760604225,1
277.3725935,2.324618762,0.1280071354,1.325327561,2.678942209,1
277.3826303,2.292420777,0.6994989733,-0.2844676262,2.413589373,1
277.3926683,2.176233678,1.111679949,-1.702433794,2.978272344,1
277.4027063,2.011324071,1.514097463,-3.063394287,3.965135585,1
277.4127443,1.724966332,1.76180613,-4.224796911,4.891664198,1
277.4227823,1.381123739,1.776965036,-5.052428187,5.531016011,1
277.4328203,0.9561618465,1.735874313,-5.493657911,5.840186842,1
277.4428583,0.5682642844,1.630183259,-5.86580512,6.114580236,1
277.4528953,0.1971894541,1.558545511,-6.092270706,6.291558642,1
277.4629333,-0.3487966463,1.552070743,-6.295088983,6.49297528,1
277.4729713,-1.171867971,1.484755843,-6.696255339,6.958276368,1
277.4830093,-1.928404413,1.48773076,-6.925909996,7.341683436,1
277.4930473,-2.73927026,1.685126621,-6.852063755,7.569282066,1
277.5030853,-3.492076471,1.658524128,-6.967591873,7.968226708,1
277.5131233,-4.009502724,1.791282382,-6.914532484,8.1911882,1
277.5231613,-4.244784741,1.84963277,-6.339658214,7.850516235,1
277.5331983,-4.217177989,1.68591424,-5.45478796,7.098000332,1
277.5432363,-3.34301311,1.687320788,-4.323568078,5.719792743,1
277.5532743,-1.857978501,1.8940605,-2.936563502,3.957645069,1
277.5633123,-0.09157441378,1.720604163,-0.9915877873,1.987991675,1
277.5733503,1.70827107,1.036376582,2.192593603,2.966434421,1
277.5833883,3.275884443,-0.2237805444,6.516980876,7.297433546,1
277.5934263,4.567426207,-1.524805031,11.49272926,12.46070778,1
277.6034643,4.977552252,-2.24527994,15.84081705,16.75556007,1
277.6135013,4.185346332,-2.552934407,18.06862727,18.72190934,1
277.6235393,2.66446069,-2.417061195,17.99646561,18.35250147,1
277.6335773,1.116872569,-2.300235727,15.84564802,16.05064018,1
277.6436153,-0.3144705668,-2.038795605,12.76867007,12.93423808,1
277.6536533,-1.507729699,-1.79135825,10.06302072,10.33182458,1
277.6636913,-1.768280751,-1.574604304,7.95725768,8.302056692,1
277.6737293,-0.972452774,-1.102075239,5.633883498,5.822446006,1
277.6837673,0.4728605291,-0.4567214099,2.619982383,2.70120329,1
277.6938043,1.494945347,0.2535353438,-0.9328975296,1.780291988,1
277.7038423,1.537870634,0.5681179579,-4.45084676,4.743188905,1
277.7138803,0.5820642981,0.6068410704,-7.186235054,7.235262896,1
277.7239183,-0.7901924309,0.4207899043,-8.601740713,8.648202791,1
277.7339563,-1.883268001,-0.09142194763,-8.739189457,8.940273413,1
277.7439943,-2.524280419,-0.583696256,-7.811930398,8.230367519,1
277.7540323,-2.733111095,-0.7193939053,-6.296561896,6.901747283,1
277.7640703,-2.526129309,-0.7026542039,-5.220419862,5.841903436,1
277.7741073,-2.302912728,-0.5397699255,-4.890019433,5.432039089,1
277.7841453,-2.328974061,-0.4049478967,-5.048076105,5.574152432,1
277.7941833,-2.238961731,-0.1082015562,-5.757027614,6.178027529,1
277.8042213,-1.779411219,0.2108488423,-6.919343573,7.147592392,1
277.8142593,-1.109117114,0.4126574506,-8.251374382,8.335802669,1
277.8242973,0.09276227564,0.724160994,-9.116866379,9.146051965,1
277.8343353,1.220524699,1.056215892,-8.900707095,9.045875267,1
277.8443733,1.841365685,0.8948606609,-7.315182531,7.596268732,1
277.8544103,1.782324594,0.4379068972,-4.631721606,4.982096792,1
277.8644483,1.49880217,0.06265861675,-1.5422616,2.151488994,1
277.8744863,1.210096482,-0.08473309837,1.516698743,1.942134978,1
277.8845243,1.235239509,-0.09396614425,4.14889479,4.3298931,1
277.8945623,1.316241572,0.2671122862,6.082988836,6.229493882,1
277.9046003,1.060904482,0.6372064653,7.178579294,7.284473288,1
277.9146383,0.7161017767,0.9564504066,6.987990469,7.089401239,1
277.9246763,0.6465564555,1.092244023,5.04316152,5.200433671,1
277.9347133,0.559110176,1.372303214,2.753291298,3.126728846,1
277.9447513,0.0861441046,1.776872358,1.899387898,2.602377868,1
277.9547893,-0.3628413659,1.353176095,2.375556489,2.757899207,1
277.9648273,-0.2408418426,0.4667650626,3.40328884,3.44358089,1
277.9748653,-0.03933275789,-0.3660416567,4.266492822,4.282346852,1
277.9849033,-0.09017839104,-1.049219772,4.263688497,4.391814417,1
277.9949413,-0.127271373,-1.444993168,3.294964492,3.60013809,1
278.0049793,1.207975112,-1.405071888,2.354122351,2.995884331,1
278.0150163,6.459539584,-0.1734721242,2.381932878,6.886896866,1
278.0250543,7.535171156,1.409949635,-1.010341562,7.732241098,1
278.0350923,2.526383078,0.5219473929,-2.725583682,3.75284518,1
278.0451303,-2.222170574,-0.09763647806,-2.177166894,3.112495884,1
278.0551683,-3.560236587,0.904775419,-1.891907555,4.131974989,1
278.0652063,-3.32973613,1.627188607,2.176140708,4.297728916,1
278.0752443,-5.72832831,0.07317505337,2.019107884,6.074199244,1
278.0852823,-6.901676795,0.3076163875,-2.207351975,7.252597685,1
278.0953193,-6.187558102,0.499803037,-0.4994551277,6.227771172,1
278.1053573,-4.767362683,0.02488092586,-1.908318935,5.135177423,1
278.1153953,-5.674066733,-0.1421658392,-2.013796858,6.022509627,1
278.1254333,-5.596642581,-0.4393263088,-1.767399868,5.885500665,1
278.1354713,-5.532736607,-0.7938704757,-1.66409594,5.831862481,1
278.1455093,-6.150875595,-0.639066757,-1.124614867,6.285414505,1
278.1555473,-7.580943745,0.6277760759,-0.03972539842,7.606996054,1
278.1655853,-7.601380348,0.7583639896,-0.3755836183,7.648343755,1
278.1756223,-7.154098172,-0.6635092878,-1.510918186,7.341950626,1
278.1856603,-6.544528863,-1.587657629,-1.389418307,6.876190662,1
278.1956983,-6.053027118,-1.170449144,-0.9970666283,6.245256629,1
278.2057363,-5.81861926,-0.3301764804,-0.2902423364,5.835202414,1
278.2157743,-5.490355403,0.7045891938,1.04809294,5.633732972,1
278.2258123,-5.533665145,1.651468001,2.906960803,6.465231443,1
278.2358503,-5.648023235,2.069634259,4.112830333,7.286900972,1
278.2458883,-5.587734348,2.660910846,4.462854602,7.630222335,1
278.2559253,-5.092755264,3.309664977,5.319091042,8.073584579,1
278.2659633,-3.992386754,3.360809111,6.703841516,8.495627166,1
278.2760013,-1.902883217,3.747307726,8.349197715,9.34731952,1
278.2860393,-0.8685253863,4.758980407,10.82855456,11.86000947,1
278.2960773,-0.8888237031,5.776843243,13.02170365,14.27328593,1
278.3061153,-1.956792207,5.808371429,13.83812581,15.13472631,1
278.3161533,-2.399638832,5.232694337,13.39164763,14.57654221,1
278.3261913,-1.381813564,4.043424176,11.31066217,12.09089602,1
278.3362283,-0.4235906475,2.891448433,7.961123859,8.480530418,1
278.3462663,1.139762225,2.237845205,3.930757978,4.664532921,1
278.3563043,2.91557843,1.191732424,0.4471523684,3.181315607,1
278.3663423,3.465493567,-0.4194687259,-2.069241911,4.057999724,1
278.3763803,3.549582667,-2.725926914,-3.827351139,5.888873525,1
278.3864183,4.308255975,-4.983939165,-5.127965443,8.348457865,1
278.3964563,4.735006238,-7.435417072,-6.66166438,11.04913949,1
278.4064943,4.46746367,-10.42123284,-8.642962999,14.25696794,1
278.4165323,4.08723707,-12.9598097,-11.08349082,17.53584738,1
278.4265693,4.723121772,-14.8754628,-13.39324743,20.56614571,1
278.4366073,5.730526278,-16.74084037,-14.87500438,23.11623721,1
278.4466453,6.181163002,-18.53981579,-15.99297681,25.25285831,1
278.4566833,6.491520345,-19.56273939,-17.28184347,26.89800592,1
278.4667213,7.18874234,-19.84782623,-18.63415476,28.15752024,1
278.4767593,7.948459375,-19.67453815,-19.5050531,28.82208449,1
278.4867973,8.517582323,-18.94977577,-19.33203632,28.37905634,1
278.4968353,8.110873976,-17.43846816,-18.61662364,26.76686616,1
278.5068723,6.707217114,-15.47623497,-17.32072746,24.1766046,1
278.5169103,2.931860294,-13.46630254,-14.52193196,20.02057983,1
278.5269483,-1.040239107,-9.871395764,-8.965972547,13.37591924,1
278.5369863,-2.974883814,-4.101943402,-0.6592782426,5.109845515,1
278.5470243,-3.638047824,1.001898183,10.65673764,11.30509836,1
278.5570623,-5.727840652,2.329463473,23.49720684,24.29718683,1
278.5671003,-7.688384578,3.00387314,35.15249688,36.10862152,1
278.5771383,-9.835504385,3.826862896,44.50900555,45.74312627,1
278.5871753,-10.46500978,5.570132475,47.76459489,49.21381239,1
278.5972133,-9.603427227,7.726675655,44.22469053,45.91024487,1
278.6072513,-8.98538004,9.224501925,37.10390453,39.27503306,1
278.6172893,-7.845728474,10.06203838,28.97040651,31.65571868,1
278.6273273,-6.241317987,9.606813934,20.91940101,23.85091744,1
278.6373653,-5.580433515,8.423901157,13.75354467,17.06643899,1
278.6474033,-4.651419413,7.033121619,8.150199425,11.72715877,1
278.6574413,-3.370676872,5.322210531,4.022121307,7.47427905,1
278.6674783,-3.259699058,3.293126128,0.8847784531,4.717324512,1
278.6775163,-4.201762975,1.429723164,-1.389958005,4.650903534,1
278.6875543,-5.10880704,-0.1957507467,-3.694390132,6.307673595,1
278.6975923,-5.858009028,-1.374027558,-6.199216865,8.639126764,1
278.7076303,-6.546781211,-2.147258971,-8.755845836,11.14162922,1
278.7176683,-6.891569299,-2.453004322,-11.43775959,13.57694008,1
278.7277063,-7.09080557,-2.507764374,-14.54691594,16.37623794,1
278.7377443,-7.809789732,-2.867373984,-17.83181737,19.67710243,1
278.7477813,-8.598689636,-3.565260807,-20.17006161,22.21440824,1
278.7578193,-9.140050589,-4.075112869,-21.03937652,23.29812082,1
278.7678573,-9.587171382,-4.41175023,-21.38491656,23.84726507,1
278.7778953,-9.428435265,-4.727239382,-21.57333256,24.01355578,1
278.7879333,-9.221125742,-5.131116507,-21.05717076,23.55338526,1
278.7979713,-9.211510581,-5.155308777,-19.68428429,22.3360736,1
278.8080093,-8.571303032,-4.939785671,-17.99481319,20.53489761,1
278.8180473,-7.853939134,-5.476033233,-16.10120877,18.7328648,1
278.8280843,-6.529110925,-6.124138616,-13.51493149,16.21072906,1
278.8381223,-4.851326069,-6.435314569,-9.855112438,12.73074544,1
278.8481603,-3.144448098,-5.844681469,-4.434752884,7.982160639,1
278.8581983,-2.929086375,-5.365946535,5.630079299,8.310879744,1
278.8682363,-3.661201336,-4.895772509,21.11802391,21.98508397,1
278.8782743,-0.7808611518,-4.251585053,36.35103108,36.60714657,1
278.8883123,2.336678206,-5.082729043,48.4003416,48.72255398,1
278.8983503,3.575988109,-5.022189896,51.33554094,51.70442772,1
278.9083883,3.769904584,-1.933818935,43.13058293,43.33819355,1
278.9184253,3.033507999,3.087025809,29.99253489,30.30320195,1
278.9284633,2.856029216,7.856235335,19.48671623,21.20399599,1
278.9385013,4.899018298,10.74690989,12.03000535,16.85875088,1
278.9485393,6.325963451,11.2421866,7.199082556,14.77265591,1
278.9585773,7.234465227,10.01513436,4.287760314,13.07766385,1
278.9686153,6.464177595,8.084102499,2.121033039,10.56584527,1
278.9786533,4.662894282,6.716562134,0.1872699451,8.178622134,1
278.9886913,2.750179995,5.485475317,-2.606984607,6.667105684,1
278.9987283,1.387107487,4.363972046,-6.140396799,7.659816712,1
279.0087663,0.1816852695,3.118834662,-9.495746657,9.996466564,1
279.0188043,-1.102929298,2.161359531,-12.1686136,12.40818621,1
279.0288423,-2.118118787,1.105169367,-14.27580628,14.47433837,1
279.0388803,-2.567707105,-0.155450567,-15.7797195,15.98802152,1
279.0489183,-2.886441462,-1.757964801,-16.46232111,16.80565384,1
279.0589563,-3.371293168,-3.453790072,-16.1316599,16.83819274,1
279.0689943,-4.145434408,-4.944587404,-16.10576375,17.350193,1
279.0790313,-4.301727266,-6.130885718,-16.75711668,18.35466089,1
279.0890693,-4.275192601,-7.167912803,-17.88048609,19.73241061,1
279.0991073,-4.867427254,-8.158551003,-19.16130113,21.38712846,1
279.1091453,-5.876291517,-9.317916457,-20.76037311,23.50207354,1
279.1191833,-6.552661171,-10.50799149,-22.09507025,25.32878566,1
279.1292213,-6.91872026,-11.65968481,-22.67422527,26.41850547,1
279.1392593,-6.905302069,-12.96941434,-22.12055943,26.5557537,1
279.1492973,-6.609390857,-14.25973228,-21.02318207,26.24877514,1
279.1593343,-6.652786553,-15.51203981,-19.85120358,26.05673103,1
279.1693723,-6.654217951,-16.03857223,-17.86630308,24.91423692,1
279.1794103,-6.282266039,-16.39113243,-14.75807176,22.93331139,1
279.1894483,-5.431284492,-17.42717719,-10.74611233,21.18216906,1
279.1994863,-3.612626177,-18.05625573,-6.573830431,19.55235754,1
279.2095243,-2.722806547,-17.68816298,-1.834532921,17.99028338,1
279.2195623,-4.386834367,-15.55592083,6.355408275,17.3672739,1
279.2296003,-2.631283004,-9.024699057,17.86328826,20.18578487,1
279.2396373,0.2610911889,-4.143408055,28.75312164,29.0512995,1
279.2496753,-0.06649579721,-3.272585444,40.46487941,40.59705289,1
279.2597133,-2.534713022,-1.420862879,50.93000613,51.01283315,1
279.2697513,-6.628002545,1.711341735,56.43398555,56.84763701,1
279.2797893,-8.916829623,5.282727792,55.31116578,56.27381383,1
279.2898273,-8.431866819,9.030438684,47.24606848,48.83478461,1
279.2998653,-6.663392233,12.31047757,35.66493984,38.3136606,1
279.3099033,-4.606130389,14.77325581,24.56170882,29.03003728,1
279.3199413,-3.414430709,15.84537788,16.76714816,23.32105475,1
279.3299783,-3.543380818,15.8267697,12.0743787,20.21961443,1
279.3400163,-4.679257422,14.43226841,8.884101003,17.58161176,1
279.3500543,-6.114397155,11.96792312,6.173522446,14.78950357,1
279.3600923,-7.464557841,9.29059885,3.263539217,12.35659901,1
279.3701303,-8.39587019,6.791829833,-0.1490233076,10.80008318,1
279.3801686,-8.765504851,4.137974822,-3.540575616,10.31952453,1
279.3902066,-8.195355717,1.580785688,-6.441238384,10.54287867,1
279.4002446,-7.1808983,-0.7917106605,-8.699996156,11.30849412,1
279.4102816,-5.749239707,-2.739801772,-9.833169007,11.71543784,1
279.4203196,-4.240301096,-4.653941025,-10.33318079,12.10016304,1
279.4303576,-3.121504501,-6.389361302,-10.58401465,12.75104287,1
279.4403956,-2.663299726,-7.969125774,-10.67371912,13.58412349,1
279.4504336,-2.362945507,-9.724580365,-11.00702328,14.87634149,1
279.4604716,-1.709611836,-11.68206795,-11.41255341,16.42071435,1
279.4705096,-1.196630929,-13.48155325,-11.85021049,17.98921044,1
279.4805476,-0.7187974893,-15.42762941,-12.51200654,19.8765874,1
279.4905846,-0.1904306576,-17.12663732,-13.35586735,21.7195111,1
279.5006226,0.4993330671,-18.23660725,-14.30141357,23.18088885,1
279.5106606,1.167198896,-19.1205133,-15.3877245,24.57108966,1
279.5206986,1.899559514,-19.7996709,-16.24175478,25.67936706,1
279.5307366,2.491927483,-20.20497416,-16.06677569,25.93437804,1
279.5407746,2.393392543,-20.61427926,-14.91044201,25.55382786,1
279.5508126,1.734605759,-20.93546682,-12.85737467,24.62954956,1
279.5608506,0.09826640591,-20.63811719,-10.48115394,23.14727036,1
279.5708876,-1.661581345,-19.49631853,-8.136366667,21.19121873,1
279.5809256,-3.098310935,-17.90374046,-6.071152902,19.15730542,1
279.5909636,-4.124713045,-15.52266186,-3.710504474,16.48436024,1
279.6010016,-5.170566502,-11.18081773,1.301788425,12.38709393,1
279.6110396,-8.640672644,-5.012139117,9.733818966,13.94740097,1
279.6210776,-13.82557769,3.196183385,21.8777924,26.07680937,1
279.6311156,-18.6247653,10.92027399,35.62557405,41.65712176,1
279.6411536,-22.5099302,14.93365897,46.0247816,53.36657802,1
279.6511916,-23.59591719,17.16378234,47.99432498,56.16776622,1
279.6612286,-22.22937846,18.32830913,40.75137427,49.90738109,1
279.6712666,-18.67957827,18.45619125,28.57621764,38.8092496,1
279.6813046,-12.89061726,18.07002943,18.28949064,28.76107517,1
279.6913426,-8.758802188,16.82190383,13.1767683,23.0937283,1
279.7013806,-5.657557704,14.57304481,10.82464394,19.01458679,1
279.7114186,-2.975800658,11.93013023,8.292498434,14.83067521,1
279.7214566,-2.076186357,9.32088275,5.41219918,10.97639763,1
279.7314936,-2.229045292,6.616747239,2.474121249,7.407513948,1
279.7415316,-2.788228412,4.134607118,-0.395973444,5.002598192,1
279.7515696,-3.123393152,1.813689351,-3.447849301,4.993267332,1
279.7616076,-3.304604212,-0.2833315122,-6.242391536,7.068814458,1
279.7716456,-3.635926162,-2.083091041,-8.51922656,9.494021725,1
279.7816836,-3.017772264,-3.593047945,-10.34982197,11.36379152,1
279.7917216,-2.027876807,-5.327081262,-12.02256769,13.30534528,1
279.8017596,-0.9531002444,-7.186014614,-13.10593864,14.97707694,1
279.8117976,-0.2474575286,-9.10108299,-13.30127657,16.11877493,1
279.8218346,0.7879067543,-10.86069788,-13.40245445,17.26850719,1
279.8318726,1.956855503,-12.02867569,-14.8074936,19.17759602,1
279.8419106,3.135092846,-12.14531946,-17.57213434,21.58975445,1
279.8519486,3.479497941,-12.31713404,-20.81323896,24.43378016,1
279.8619866,2.528465272,-12.63806198,-23.16337292,26.50765159,1
279.8720246,1.206972607,-11.72972978,-23.34992483,26.15840846,1
279.8820626,-0.1143668604,-10.61796124,-22.24493673,24.64936897,1
279.8921006,-1.400619964,-10.64101564,-20.71563022,23.33088694,1
279.9021376,-2.744974511,-10.91134178,-18.51363429,21.66441597,1
279.9121756,-4.181557921,-11.54271009,-15.78937325,20.00059726,1
279.9222136,-5.536326213,-12.02324129,-12.10138114,17.93467771,1
279.9322516,-6.700609176,-11.57386172,-7.720076487,15.4418917,1
279.9422896,-7.02291238,-9.219195576,-2.067564345,11.77241214,1
279.9523276,-6.706016096,-4.777899658,4.426924047,9.348616664,1
279.9623656,-6.624915215,2.743446341,12.17451928,14.12922217,1
279.9724036,-9.056162925,11.47383691,17.59176227,22.87210354,1
279.9824406,-17.05558429,14.29873438,16.96790997,27.98672416,1
279.9924786,-26.33124468,11.16693059,18.19682045,33.89924866,1
280.0025166,-32.87881409,7.207449921,25.59120937,42.28325611,1
280.0125546,-34.45364702,2.66122104,26.91699769,43.80251882,1
280.0225926,-29.78593171,3.116075069,23.24649694,37.91188826,1
280.0326306,-20.52989458,6.834712143,19.80678813,29.33425843,1
280.0426686,-13.64489639,6.266410729,15.73252779,21.74772474,1
280.0527066,-9.588521504,5.445342953,11.25920433,15.75947927,1
280.0627436,-6.87728689,4.76148477,6.597169592,10.65323701,1
280.0727816,-3.967549244,3.257650778,3.503646941,6.215245569,1
280.0828196,-1.177846164,1.940889096,1.799564817,2.897033931,1
280.0928576,0.6869215393,1.028051901,0.5290929097,1.344875912,1
280.1028956,1.801996382,0.7777112567,-0.150941779,1.968453499,1
280.1129336,1.816926223,1.155976116,-1.535859484,2.645064467,1
280.1229716,0.4631319317,1.276805319,-3.818228313,4.052602924,1
280.1330096,-0.4640547685,0.7242554265,-6.394575849,6.452169638,1
280.1430476,-0.4956706636,0.09606682956,-8.908836479,8.923132054,1
280.1530846,-0.07089785524,-0.7737462598,-11.50627492,11.53247902,1
280.1631226,0.7864424653,-1.679674092,-13.8999379,14.02312627,1
280.1731606,1.95491335,-2.781672513,-15.26281043,15.63690412,1
280.1831986,2.774459973,-4.337074562,-15.77472013,16.59366262,1
280.1932366,3.255176821,-6.089448255,-16.06418186,17.48529368,1
280.2032746,3.578172044,-7.663833874,-16.23118536,18.30270589,1
280.2133126,3.914641297,-8.852544165,-16.37148462,19.01887124,1
280.2233506,4.316503472,-9.867506196,-16.82336329,19.97562097,1
280.2333876,4.185387555,-11.03835032,-17.16916529,20.83609569,1
280.2434256,3.169089142,-12.09726704,-17.39861354,21.42658976,1
280.2534636,1.832298992,-12.50151313,-17.17300808,21.32035076,1
280.2635016,0.7466371793,-12.53518139,-16.0643947,20.39002248,1
280.2735396,0.1220264205,-12.68245171,-14.46645123,19.23896263,1
280.2835776,-0.1544012842,-12.90847349,-12.50131432,17.97040309,1
280.2936156,-0.7258208723,-13.31306573,-10.07988526,16.71432385,1
280.3036536,-1.938020013,-13.35224792,-7.533550892,15.45292319,1
280.3136906,-4.560023047,-12.29671791,-4.435069803,13.84459915,1
280.3237286,-7.985232514,-9.377500169,-0.3268932688,12.32105137,1
280.3337666,-10.08813568,-4.754192999,4.723476698,12.11131969,1
280.3438046,-9.918664656,-0.6342161992,8.833804423,13.29730196,1
280.3538426,-8.804233299,1.927168604,12.96566627,15.79040863,1
280.3638806,-8.865473528,4.092600429,17.76411948,20.27091365,1
280.3739186,-9.912463099,6.605107187,23.40018282,26.25743555,1
280.3839563,-10.88776698,9.533947102,28.04255396,31.55668629,1
280.3939933,-10.99999142,12.2815935,28.78980473,33.17665153,1
280.4040313,-9.829028009,14.31186138,26.23756994,31.46186969,1
280.4140693,-7.904875399,15.55975894,22.30125243,28.31852774,1
280.4241073,-5.502977203,16.12539636,18.2934913,24.99925979,1
280.4341453,-3.207709417,15.79385105,14.93678021,21.9736782,1
280.4441833,-1.73800153,14.59270432,12.56665579,19.33619679,1
280.4542213,-1.273144962,12.87922688,11.15900411,17.08855628,1
280.4642593,-1.545383575,10.81381958,10.02396599,14.82588272,1
280.4742973,-1.788915429,8.445298458,8.419666604,12.05877565,1
280.4843343,-1.806875737,5.969838781,6.070977486,8.70405323,1
280.4943723,-1.728766876,3.63599779,3.407863702,5.274717988,1
280.5044103,-1.177878031,1.508574037,0.8251719368,2.084250706,1
280.5144483,-0.2860969529,-0.4544698665,-1.463299046,1.558729747,1
280.5244863,0.5167695373,-2.326650378,-3.282065535,4.05614434,1
280.5345243,1.002459808,-4.256777673,-4.618310432,6.360335924,1
280.5445623,1.359462875,-6.237208564,-5.859035799,8.66482605,1
280.5546003,1.629848944,-8.146459545,-7.093523941,10.9242525,1
280.5646373,1.480963485,-9.778081804,-7.983557872,12.70989114,1
280.5746753,1.520879795,-11.24921495,-8.524759195,14.19610622,1
280.5847133,1.931079076,-12.5386944,-8.713068191,15.39043472,1
280.5947513,2.707597062,-13.7726791,-8.739569526,16.53474665,1
280.6047893,4.180091732,-14.45396041,-8.952649666,17.50828588,1
280.6148273,5.799135752,-14.34184824,-9.401086668,18.10245886,1
280.6248653,6.949768975,-13.69585604,-9.475576102,18.04611603,1
280.6349033,7.278820451,-12.45217432,-8.393385708,16.68792366,1
280.6449403,6.173937598,-10.85470097,-6.267580757,13.97227996,1
280.6549783,3.83186285,-8.372600026,-3.662759035,9.909561436,1
280.6650163,0.1937081681,-4.639803042,-0.4704757422,4.667616367,1
280.6750543,-4.283334849,0.08091435492,2.908934239,5.1783591,1
280.6850923,-8.224017014,5.115617293,6.878103161,11.8790698,1
280.6951303,-9.608171073,8.866475156,10.02668378,16.47621682,1
280.7051683,-10.31336575,11.25973526,11.70668824,19.24041841,1
280.7152063,-11.68477521,13.53854957,12.43633772,21.78276365,1
280.7252433,-12.95687323,15.2552839,12.29772597,23.4912391,1
280.7352813,-13.04391021,15.90543463,11.52162503,23.5769864,1
280.7453193,-11.75781395,14.95705368,10.16204916,21.56911882,1
280.7553573,-9.555579461,12.62665407,8.627476648,18.03260505,1
280.7653953,-6.936552513,9.814209995,7.263001978,14.04228174,1
280.7754333,-4.576999853,6.826673391,5.882765554,10.10738976,1
280.7854713,-2.580411935,3.857582413,4.448520153,6.428747886,1
280.7955093,-0.6922779543,1.063016204,2.873967889,3.141487489,1
280.8055463,1.088785761,-1.304071763,1.438822017,2.226267367,1
280.8155843,2.407194458,-3.37912756,0.2179678273,4.154587609,1
280.8256223,3.218437596,-5.361234848,-0.9044215894,6.318160972,1
280.8356603,4.060059212,-7.263688442,-2.2621322,8.623368986,1
280.8456983,5.019214248,-8.89832377,-3.803460585,10.90132974,1
280.8557363,5.317734488,-10.2326882,-5.002870696,12.57039869,1
280.8657743,5.082573507,-11.45658762,-5.702762529,13.76980224,1
280.8758123,5.214255728,-12.6737569,-6.25991798,15.06649096,1
280.8858503,5.263280538,-13.87036736,-6.980986674,16.39583446,1
280.8958873,4.894794855,-14.97577178,-7.866973162,17.61028177,1
280.9059253,4.587620736,-15.55849126,-8.917714891,18.51049846,1
280.9159633,4.564392672,-15.55636054,-9.691665804,18.88815554,1
280.9260013,4.746467073,-15.39097555,-10.23391495,19.08255992,1
280.9360393,4.890133747,-15.22486317,-10.6047056,19.18774733,1
280.9460773,4.511392047,-14.80761873,-10.5517462,18.73386181,1
280.9561153,4.004526743,-14.11247015,-10.1085752,17.81519972,1
280.9661533,3.547976437,-13.37202788,-9.594518409,16.83609367,1
280.9761903,2.826693735,-12.52116094,-8.749329114,15.53449158,1
280.9862283,2.135777232,-11.47825506,-7.767941794,14.02329503,1
280.9962663,1.151030687,-10.18733954,-6.703115877,12.24902122,1
281.0063043,-0.4826892601,-8.498850768,-5.086670651,9.916535262,1
281.0163423,-2.493848001,-6.223996781,-2.809543852,7.269865915,1
281.0263803,-4.01226144,-3.616162573,-0.2846699399,5.40887332,1
281.0364183,-5.045416206,-1.276959978,1.809541336,5.510108105,1
281.0464563,-6.105392443,0.7505345678,3.257200835,6.960493969,1
281.0564933,-6.991839691,2.885788035,4.230362876,8.666577463,1
281.0665313,-7.3363629,5.237683766,5.010034119,10.31290423,1
281.0765693,-7.422269608,7.200938462,5.618410596,11.76903303,1
240.9351978,40.2247787,-19.52352328,68.73657406,81.99949632,1
240.9452358,32.4773045,-21.60644651,55.97341207,68.22489792,1
240.9552738,27.0087405,-22.51629665,43.80848572,56.17507543,1
240.9653118,23.69994852,-20.40213994,31.21564844,44.18542273,1
240.9753488,21.57572757,-15.67347208,19.05294872,32.77475557,1
240.9853868,19.98809392,-10.25771078,8.21082745,23.91991255,1
240.9954248,18.17611196,-5.569364735,-0.2990067279,19.012582,1
241.0054628,15.93517591,-2.291835471,-6.207751461,17.25452171,1
241.0155008,12.91441777,-0.3254870135,-10.23980777,16.48459254,1
241.0255388,9.122776744,0.1299308328,-12.66404935,15.60833378,1
241.0355758,6.525456415,-0.801749745,-14.05244966,15.51437158,1
241.0456138,4.613706919,-2.511632307,-15.13642287,16.02204374,1
241.0556518,2.575045361,-4.478935907,-16.63067649,17.41468133,1
241.0656898,0.3610921714,-6.483135438,-17.21076472,18.39488665,1
241.0757278,-1.980326519,-8.349225782,-17.57474921,19.55768581,1
241.0857648,-4.384810353,-8.924140981,-18.87767025,21.33619666,1
241.0958028,-5.745591044,-7.756581824,-21.42498402,23.49907058,1
241.1058408,-6.183141115,-5.65922533,-25.11993314,26.48148611,1
241.1158788,-6.29732028,-3.674595846,-28.2466826,29.17248661,1
241.1259168,-5.982876318,-2.706420017,-29.21470786,29.94359153,1
241.1359548,-5.153689683,-2.758770724,-28.9232265,29.50803898,1
241.1459918,-3.89558376,-3.231720131,-27.69254665,28.1513184,1
241.1560298,-3.350217757,-4.397915133,-25.21875576,25.81765402,1
241.1660678,-3.640448983,-6.121526665,-21.90422181,23.03303911,1
241.1761058,-4.217589049,-7.247874647,-17.58378316,19.48099522,1
241.1861438,-4.587422515,-7.833748698,-12.92849202,15.79740389,1
241.1961818,-4.776003406,-8.119901492,-8.885835872,12.94994548,1
241.2062188,-5.229847913,-8.133840669,-6.082683027,11.42408447,1
241.2162568,-5.562059809,-7.485097355,-4.685669187,10.43641162,1
241.2262948,-5.744571875,-6.568531099,-4.754137743,9.937179303,1
241.2363328,-5.723245325,-5.584327176,-5.836352111,9.899659237,1
241.2463708,-5.28443401,-4.61406126,-7.34748372,10.15875588,1
241.2564078,-4.503402412,-3.650479882,-8.474866074,10.26791077,1
241.2664458,-3.772977296,-2.919517699,-9.433315351,10.57101602,1
241.2764838,-2.694739912,-2.606825855,-10.0761138,10.75105732,1
241.2865218,-1.912884441,-2.289414139,-9.554760851,10.00969524,1
241.2965598,-1.312686758,-2.018058309,-8.181921739,8.528748396,1
241.3065978,-0.862921561,-1.789392708,-6.365472502,6.668268145,1
241.3166348,-0.7149639085,-1.213522366,-4.629901952,4.839400997,1
241.3266728,-0.7226933429,-0.4649800173,-3.345921223,3.454516017,1
241.3367108,-1.169537855,0.3378586254,-2.828830308,3.079650655,1
241.3467492,-2.250381343,1.15268311,-3.325213893,4.17731277,1
241.3567872,-3.64005722,2.131342557,-4.547909371,6.202912002,1
241.3668252,-5.189758233,3.514937622,-5.628495873,8.424271054,1
241.3768622,-6.881449522,5.999103511,-5.955475096,10.90005844,1
241.3869002,-7.605594437,8.846769454,-5.993559766,13.11614102,1
241.3969382,-7.437900969,11.14915389,-6.348485171,14.83001238,1
241.4069762,-7.115428196,13.32246688,-6.180246744,16.31909593,1
241.4170142,-6.395930648,14.85262007,-5.082332602,16.95105768,1
241.4270512,-5.832701109,15.74970808,-2.923456968,17.04758949,1
241.4370892,-6.307924206,15.34608765,-0.1548377788,16.59265767,1
241.4471272,-6.906493732,13.92644917,2.551756486,15.753003,1
241.4571652,-7.087189068,12.35899543,5.404198435,15.23740062,1
241.4672032,-6.370847847,10.82774998,8.951518815,15.42587311,1
241.4772412,-4.104684577,9.249328033,11.74888525,15.50596044,1
241.4872782,-0.7395967662,7.010349053,15.93163952,17.42151356,1
241.4973162,2.915477273,4.931869125,23.31804113,24.01154687,1
241.5073542,9.56563024,3.584351966,30.08008408,31.76728379,1
241.5173922,21.08497544,2.075654114,37.13477783,42.75366948,1
241.5274302,33.61238472,-0.4168579076,43.77301885,55.19097169,1
241.5374682,44.71623087,-7.303589256,47.20439421,65.43040999,1
241.5475052,52.51179491,-14.21698913,48.72156424,73.03014587,1
241.5575432,53.42111647,-18.22765633,48.85525497,74.65185248,1
241.5675812,44.21361357,-20.74524987,45.27277821,66.5945453,1
241.5776192,30.71628219,-21.6016705,37.49592526,53.06662389,1
241.5876572,17.59237974,-18.2533946,26.42686069,36.62044791,1
241.5976942,8.365835382,-13.02450213,15.42594892,21.85371267,1
241.6077322,6.68651914,-7.656971582,6.7640731,12.21030044,1
241.6177702,9.532024537,-2.25157666,0.2722861218,9.798123747,1
241.6278082,11.4155963,1.13466857,-4.118174103,12.1886287,1
241.6378462,10.26563492,2.592442582,-6.56610392,12.45864116,1
241.6478842,7.377485783,2.611632559,-7.619269904,10.92250864,1
241.6579212,4.318307046,1.446961049,-8.577739062,9.71180104,1
241.6679592,1.720642608,0.02498456776,-11.02394746,11.15744831,1
241.6779972,-0.9458915046,-1.684175863,-13.56961816,13.70641077,1
241.6880352,-3.894762226,-3.752143081,-15.46701157,16.38524329,1
241.6980732,-6.253235198,-5.447602901,-16.86379562,18.79273611,1
241.7081112,-7.825217026,-6.30730557,-18.11383209,20.71538168,1
241.7181482,-8.494643111,-6.120593449,-18.90182392,21.60785907,1
241.7281862,-8.933723398,-5.541941879,-19.28267881,21.96238228,1
241.7382242,-8.838221995,-4.564760754,-19.74253191,22.10698476,1
241.7482622,-8.765185593,-4.085671186,-20.33730133,22.51948075,1
241.7583002,-8.0217513,-4.256802523,-20.66529505,22.57262238,1
241.7683382,-6.835571099,-4.579855926,-20.100868,21.71969168,1
241.7783752,-6.03350385,-5.192606996,-18.67636464,20.30204257,1
241.7884132,-5.470067319,-6.119043353,-16.94956959,18.83221276,1
241.7984512,-5.214338758,-7.105059913,-15.34616951,17.69678286,1
241.8084892,-5.006039302,-7.887346616,-14.00314242,16.83326064,1
241.8185272,-4.536645879,-8.393343608,-12.89216443,16.03861829,1
241.8285642,-4.014021744,-8.561252253,-12.04133492,15.31016516,1
241.8386022,-3.58846899,-8.461526821,-11.35756503,14.61057251,1
241.8486402,-3.438113102,-8.30415252,-10.78761587,14.04109066,1
241.8586782,-3.055965107,-8.008352405,-10.67828346,13.69300437,1
241.8687162,-2.357848928,-7.369905453,-10.69552573,13.20110709,1
241.8787542,-2.003403725,-6.857332681,-10.59291411,12.77679409,1
241.8887912,-2.107006592,-6.498766215,-10.55856055,12.57603435,1
241.8988292,-2.172797562,-6.096757275,-10.72791112,12.52914903,1
241.9088672,-2.222585726,-5.800041486,-10.91427942,12.55794027,1
241.9189052,-2.317916976,-5.50476879,-10.87747938,12.40946317,1
241.9289432,-2.356540905,-5.379905008,-10.65660432,12.16798581,1
241.9389812,-2.363428779,-5.359433321,-10.61569954,12.12445454,1
241.9490182,-1.868294452,-5.331093037,-10.65284105,12.05794757,1
241.9590562,-1.662448487,-5.080637494,-10.5297864,11.80902257,1
241.9690942,-1.568831056,-4.628564109,-10.54496694,11.62244227,1
241.9791322,-1.419902181,-4.186174298,-10.55932302,11.44724771,1
241.9891702,-1.306391061,-3.763835174,-10.35677197,11.09665888,1
241.9992082,-1.453202951,-3.359292343,-10.07324399,10.71759713,1
242.0092452,-1.897536085,-2.97973408,-10.02164348,10.62604331,1
242.0192832,-2.394466677,-2.48511343,-10.18787397,10.75648807,1
242.0293212,-2.719127771,-2.061791389,-10.2841589,10.83552324,1
242.0393592,-2.942463927,-1.730254554,-10.1060878,10.66699983,1
242.0493972,-2.917697753,-1.434006542,-9.511170443,10.05145254,1
242.0594342,-2.75934609,-0.9518294983,-7.577238949,8.120007409,1
242.0694722,-2.26830686,-0.6476178713,-4.640176095,5.205368297,1
242.0795102,-1.774830218,-0.0904142531,-0.7737234557,1.938258245,1
242.0895482,-0.9226017523,1.30345225,3.362553043,3.722491736,1
242.0995862,0.8006738573,2.990866886,5.566147597,6.369329826,1
242.1096242,2.955788562,4.176584572,5.820495046,7.749755306,1
242.1196612,4.975278854,4.06636368,6.48874935,9.131953864,1
242.1296992,6.87384171,3.107724076,12.9567633,14.99284376,1
242.1397372,10.7166599,1.17114467,24.49669948,26.763906,1
242.1497752,15.65319394,-1.78623565,37.0465223,40.257396,1
242.1598132,18.98294702,-4.541328914,43.63945909,47.8056308,1
242.1698502,20.91048049,-5.517823868,42.51398702,47.69836126,1
242.1798882,20.8298661,-6.855673242,40.26426378,45.84860429,1
242.1899262,19.22196015,-8.930493397,39.4803767,44.81001683,1
242.1999642,16.60730283,-10.08391282,39.46507102,43.98840343,1
242.2100022,12.47679811,-10.18396569,39.57725337,42.7287097,1
242.2200402,9.340677913,-8.946697201,39.0156821,41.10371156,1
242.2300772,10.35102298,-6.509877094,35.01668243,37.09029826,1
242.2401152,12.83550842,-3.766098046,27.86950444,30.91347682,1
242.2501532,13.88182439,-1.402459644,20.10560892,24.47258572,1
242.2601912,12.57603472,0.3948773103,13.54342965,18.48613167,1
242.2702292,10.03415535,1.27377266,8.240334839,13.04645119,1
242.2802672,7.836211545,1.580042069,4.483500536,9.165398048,1
242.2903042,6.213778771,1.525073125,2.306479822,6.801231052,1
242.3003422,4.98452798,0.9875634411,0.8687453878,5.155144933,1
242.3103802,4.066260184,0.1546503755,-0.6532094175,4.121294841,1
242.3204182,2.914973535,-0.9326663453,-1.983905892,3.647303087,1
242.3304562,1.597355236,-2.087875672,-3.597687711,4.455796835,1
242.3404942,0.8045572856,-3.060547863,-6.127553975,6.896461655,1
242.350532,0.120044653,-3.548220851,-9.140658115,9.80591213,1
242.36057,-0.7213734801,-3.941974692,-12.36821064,13.00123758,1
242.370608,-1.584884148,-4.375032347,-15.60581161,16.28478191,1
242.380646,-2.430929037,-4.535646298,-18.38672399,19.09327427,1
242.390684,-3.163251867,-4.326912686,-20.29555455,20.99137609,1
242.400721,-3.667216952,-4.160238973,-21.10736326,21.82376806,1
242.410759,-3.720255583,-4.172570458,-21.17544824,21.90091902,1
242.420797,-3.540260159,-4.45953163,-21.30970031,22.05729339,1
242.430835,-3.569815788,-4.901399869,-21.09554019,21.94969525,1
242.440873,-3.564413545,-5.452168992,-20.37219518,21.38825675,1
242.450911,-3.567106773,-5.907641948,-19.25521794,20.45453256,1
242.460948,-3.488199182,-6.219512551,-18.05423025,19.41146826,1
242.470986,-3.277117621,-6.615265555,-17.11255722,18.63708274,1
242.481024,-3.2174003,-7.10895065,-16.3007146,18.07213713,1
242.491062,-3.405443539,-7.490712436,-15.37060502,17.43454379,1
242.5011,-3.616400262,-7.721512563,-14.36477985,16.70470015,1
242.511138,-3.817832456,-7.85514366,-13.42841492,16.01878441,1
242.521175,-3.893297206,-7.860440068,-12.62439236,15.37268889,1
242.531213,-3.799453196,-7.687177713,-11.95948559,14.71590437,1
242.541251,-3.608101894,-7.39299143,-11.48336319,14.12594605,1
242.551289,-3.369214483,-7.170228885,-11.23330818,13.7459449,1
242.561327,-3.182686257,-6.940894656,-11.16455078,13.52600105,1
242.571365,-3.096142788,-6.570844842,-11.14030705,13.29919333,1
242.581402,-3.089228748,-6.190485803,-11.02018185,13.01191211,1
242.59144,-3.199478876,-5.80194417,-10.96745634,12.81344293,1
242.601478,-3.331112564,-5.376679684,-10.89059235,12.5940461,1
242.611516,-3.445659811,-4.904432528,-10.76336045,12.31973855,1
242.621554,-3.50619662,-4.396615589,-10.69200336,12.08066966,1
242.631591,-3.659168844,-3.773956704,-10.41809406,11.6691452,1
242.641629,-3.769455518,-3.18832005,-10.07763057,11.22197922,1
242.651667,-3.711963354,-2.632883972,-9.923272262,10.91705465,1
242.661705,-3.74490189,-1.982578135,-9.587589458,10.48221245,1
242.671743,-3.711281277,-1.247562078,-9.367969208,10.15326878,1
242.681781,-3.200224396,-0.5062956391,-9.572941598,10.10638325,1
242.691818,-2.151426866,0.4402416904,-9.337984101,9.592726275,1
242.701856,-0.4192655352,1.146251319,-7.816795281,7.911508336,1
242.711894,2.564739643,1.847169923,-4.276983896,5.318131007,1
242.721932,6.770151865,1.96526643,1.247553161,7.159163171,1
242.73197,13.33806257,0.2981395859,9.222470602,16.21871649,1
242.742008,25.78895051,-2.81765394,22.87826971,34.58936783,1
242.752045,41.17913785,-5.842998056,38.63959152,56.77041531,1
242.762083,51.29638799,-6.680105329,46.87266997,69.80680782,1
242.772121,52.53241453,-8.69699478,48.01024343,71.69571653,1
242.782159,43.5930322,-10.61537677,46.64305215,64.7194947,1
242.792197,29.86264718,-9.934457985,43.59486121,53.76786285,1
242.802234,17.00661269,-7.880577879,40.31661273,44.46074274,1
242.812272,8.465722198,-5.066403033,37.21163363,38.49730601,1
242.82231,5.361846467,-3.683698499,33.13009,33.76272938,1
242.832348,3.686388803,-2.669662958,26.93509365,27.31695138,1
242.842386,1.40083675,-2.280313386,19.19454139,19.38021134,1
242.852424,-1.49516871,-2.705439732,11.73190143,12.13228935,1
242.862461,-3.614074532,-3.071244174,5.107986091,6.970336966,1
242.872499,-4.290355309,-2.837294152,-0.5783808446,5.176090338,1
242.882537,-3.524330297,-2.409188358,-5.477926562,6.944981786,1
242.892575,-2.13993241,-1.833961063,-9.533609133,9.941449944,1
242.902613,-1.985837227,-1.270458459,-11.63292094,11.86939188,1
242.912651,-2.727367083,-1.949511108,-12.10321249,12.55893615,1
242.922688,-4.23004011,-3.452713015,-11.79748731,12.99981436,1
242.932726,-6.44536301,-4.626768429,-10.93997559,13.51416873,1
242.942764,-8.531063079,-5.896174389,-10.3479146,14.65002547,1
242.952802,-10.1776776,-7.182838991,-10.1378183,16.06093575,1
242.96284,-12.09136135,-7.99779935,-9.926443791,17.56986341,1
242.972878,-14.00506382,-8.957547879,-9.750932012,19.27330153,1
242.982915,-14.91749142,-9.895521376,-9.54065035,20.28489346,1
242.992953,-14.72357085,-10.72300296,-9.212598163,20.41171957,1
243.002991,-14.31644209,-11.49361102,-9.156136279,20.51580951,1
243.013029,-13.90964077,-12.28826751,-9.15368805,20.69467636,1
243.023067,-13.50140337,-13.08523365,-8.974441069,20.83391046,1
243.033105,-13.48466397,-13.60223276,-8.748091258,21.05673287,1
243.043142,-13.43657413,-13.71960626,-8.678956119,21.07352366,1
243.05318,-13.21626507,-13.51242187,-8.493555529,20.72186509,1
243.063218,-12.93275697,-13.26096002,-8.20824298,20.26041748,1
243.073256,-12.61192961,-12.93678571,-7.850830169,19.69915549,1
243.083294,-12.30909295,-12.45959911,-7.468761404,19.04042479,1
243.093331,-11.93453903,-11.98381702,-6.987977021,18.29964249,1
243.103369,-11.5484427,-11.38961595,-6.565795187,17.49855842,1
243.113407,-11.27403989,-10.69478898,-6.357890418,16.79003446,1
243.123445,-11.08611272,-9.973154858,-6.323060308,16.19712334,1
243.133483,-10.79315201,-9.343512644,-6.278771158,15.59539439,1
243.143521,-10.472196,-8.716034483,-6.281288384,15.00302403,1
243.153558,-10.23331502,-7.925021396,-6.284073998,14.38806055,1
243.163596,-10.27507467,-7.173969934,-6.485746804,14.11056043,1
243.173634,-10.66693167,-6.549616526,-7.072371054,14.37704213,1
243.183672,-11.6282455,-5.70664508,-7.996083777,15.22232726,1
243.19371,-13.74367574,-4.466579279,-8.762279527,16.90019218,1
243.203748,-15.32263797,-2.710958626,-8.915559608,17.93375962,1
243.213785,-11.69685205,-1.126857274,-7.904952582,14.16243025,1
243.223823,0.6198650855,1.403993954,-5.415722128,5.628985513,1
243.233861,22.04482864,6.279444172,-1.594045712,22.97709447,1
243.243899,41.31725844,7.505454437,2.829581675,42.08864721,1
243.253937,47.51768802,0.9930859901,8.472026666,48.27724237,1
243.263975,46.11034274,-6.723467696,16.21993531,49.34019687,1
243.274012,46.66120191,-9.930548537,24.86691243,53.79820528,1
243.28405,51.61492558,-8.223424106,31.15657753,60.84782306,1
243.294088,53.95389137,-3.789258283,36.52009513,65.26176691,1
243.304126,47.18856462,-0.02277855948,38.39387983,60.83462138,1
243.314164,33.8291831,0.2850646269,34.60469697,48.39400731,1
243.324201,21.53682722,-1.203842739,27.28792634,34.78383372,1
243.334239,12.58315897,-1.82266585,19.47865759,23.26104258,1
243.344277,6.805709369,-1.150004354,12.45055347,14.23574627,1
243.3543145,4.03762403,-0.08504649086,7.178868731,8.236856013,1
243.3643525,2.530386667,0.7691447204,3.336415112,4.257476492,1
243.3743905,1.197650099,1.232681206,0.04733613431,1.719334006,1
243.3844275,-0.5956125891,1.084002373,-2.454723696,2.748724054,1
243.3944655,-2.415606993,0.4439894633,-4.359340467,5.003612004,1
243.4045035,-4.215136142,-0.5186706863,-5.862322519,7.239006651,1
243.4145415,-5.97859908,-1.490156185,-6.877980954,9.234220834,1
243.4245795,-7.251106988,-2.274688657,-7.602400687,10.74938404,1
243.4346175,-8.030620941,-3.138322263,-8.046908945,11.7937561,1
243.4446545,-8.497272604,-4.053413267,-8.440102623,12.64393661,1
243.4546925,-8.952660776,-4.546111644,-9.104928119,13.55422377,1
243.4647305,-9.696100332,-4.724236252,-9.88677628,14.63151103,1
243.4747685,-10.8637431,-5.155094769,-10.77032799,16.14298242,1
243.4848065,-11.93331228,-5.650400712,-11.76638246,17.68555135,1
243.4948435,-12.8995214,-5.913569856,-12.64023481,19.00377586,1
243.5048815,-14.22511326,-6.412623864,-13.33908467,20.52819456,1
243.5149195,-15.57120779,-7.7578495,-13.84649435,22.23448103,1
243.5249575,-16.40030788,-9.037262385,-13.84345146,23.2869783,1
243.5349955,-16.7267556,-9.917892823,-13.25130744,23.53181038,1
243.5450335,-16.94536194,-10.53409814,-12.30778669,23.44342398,1
243.5550705,-16.89931628,-11.11023833,-11.41429822,23.22305945,1
243.5651085,-16.96937178,-11.42220015,-10.41566044,22.95456855,1
243.5751465,-16.80655722,-11.46038948,-9.465329441,22.43642918,1
243.5851845,-15.87854212,-11.47468359,-8.819850043,21.48455766,1
243.5952225,-14.44935632,-11.2439583,-7.977261005,19.97115894,1
243.6052605,-12.74230848,-10.62092461,-7.108156013,18.04705923,1
243.6152975,-10.66745208,-9.986302907,-6.5379104,16.00828073,1
243.6253355,-8.410514542,-9.481291171,-6.062706015,14.04948545,1
243.6353735,-6.140335404,-9.4073198,-5.318570639,12.42934344,1
243.6454115,-4.355130179,-9.411147387,-3.899195293,11.07883468,1
243.6554495,-2.964800876,-8.249846504,-2.198586999,9.037908849,1
243.6654875,1.300276335,-6.791033442,-2.657917364,7.407656746,1
243.6755245,11.31489789,-4.213468224,-4.469437398,12.87463007,1
243.6855625,27.66038696,1.150802792,-3.419188004,27.89466258,1
243.6956005,42.59660584,5.480874728,1.742836885,42.98311642,1
243.7056385,50.41588151,6.868385088,8.542681496,51.59373246,1
243.7156765,52.184421,8.891540415,16.25028821,55.37458942,1
243.7257145,50.87797995,10.88638002,23.81257524,57.21993405,1
243.7357515,46.98130188,11.50827584,27.76101754,55.77057678,1
243.7457895,41.86336032,11.24884541,26.15389863,50.62710611,1
243.7558275,36.17512812,10.30357868,20.35363611,42.76767624,1
243.7658655,29.54170755,7.889258655,12.80800312,33.15113619,1
243.7759035,20.7387197,4.512344266,5.938126992,22.0389904,1
243.7859405,11.3824613,1.78180273,0.1485619622,11.52203614,1
243.7959785,4.204325809,-0.2535150978,-4.623734309,6.254561885,1
243.8060165,-0.1702586406,-1.785121902,-7.107950191,7.330661917,1
243.8160545,-2.558376119,-3.130387591,-7.541991348,8.557233685,1
243.8260925,-3.80751329,-4.791551152,-7.043698647,9.33112054,1
243.8361305,-4.576397005,-6.740471399,-5.779772698,9.989150948,1
243.8461675,-5.347441851,-8.578806764,-4.460111673,11.0491473,1
243.8562055,-6.31238797,-10.09678254,-4.097999455,12.59304804,1
243.8662435,-7.0746158,-11.5330692,-4.301707093,14.19741377,1
243.8762815,-7.879704305,-12.42282598,-4.338408312,15.33747475,1
243.8863195,-8.587558292,-12.9486193,-4.490682086,16.17340795,1
243.8963575,-8.997684336,-13.3146246,-5.218875613,16.89598219,1
243.9063945,-9.08062709,-13.51012274,-6.307887368,17.45768163,1
243.9164325,-9.213160665,-13.56903227,-7.248520179,17.93159254,1
243.9264705,-9.597940199,-13.60181995,-8.184773426,18.55048458,1
243.9365085,-9.98524807,-13.44394746,-9.322263277,19.16636364,1
243.9465465,-9.966098439,-13.01463203,-10.27883911,19.34834097,1
243.9565845,-9.898066084,-12.56819711,-10.95493277,19.38921976,1
243.9666215,-9.727786978,-12.13047455,-11.57014289,19.38160104,1
243.9766595,-9.406698825,-11.63903712,-11.84872997,19.08783827,1
243.9866975,-8.905854399,-11.18291688,-11.64300855,18.43723191,1
243.9967355,-8.193614416,-10.71716276,-11.19387222,17.52985083,1
244.0067735,-7.481189661,-10.21111198,-10.8284727,16.65805594,1
244.0168115,-6.948168007,-9.721024674,-10.85460742,16.14304375,1
244.0268485,-6.542020408,-9.425354952,-11.09882456,15.96305903,1
244.0368865,-6.366029742,-8.844907116,-11.37645972,15.75381072,1
244.0469245,-5.622941018,-8.311191398,-11.74548218,15.4482918,1
244.0569625,-4.19053749,-7.820248647,-11.32763898,14.38861696,1
244.0670005,-2.321075642,-6.66946749,-10.12964623,12.34823556,1
244.0770375,-0.7044090995,-5.448387598,-8.486521913,10.10950908,1
244.0870755,1.318239274,-4.235674194,-6.253620529,7.667232903,1
244.0971135,2.990251174,-2.599163371,-3.865113042,5.535011395,1
244.1071515,3.302930154,-1.27727982,-1.602918277,3.88717614,1
244.1171895,2.081411575,-0.5178858438,0.4288529223,2.187325929,1
244.1272275,0.443387931,-0.8346752702,3.230494847,3.365913341,1
244.1372645,-0.07996257439,-1.738281758,7.936439254,8.124966801,1
244.1473025,2.144463709,-3.637727689,15.4880826,16.05342611,1
244.1573405,7.04392318,-6.632859242,25.6816962,27.44378245,1
244.1673785,13.89393515,-8.904577367,35.30220431,38.96894355,1
244.1774165,19.24057535,-10.83649625,41.01796988,46.58436695,1
244.1874545,18.8220948,-11.51745948,42.65946575,48.02867001,1
244.1974915,12.93851297,-9.342328582,40.39245814,43.43080584,1
244.2075295,7.355811324,-5.414598293,35.67902696,36.82959136,1
244.2175675,4.885404226,-1.216247607,28.99780189,29.43159776,1
244.2276055,4.345969346,1.243148161,21.55729481,22.02611692,1
244.2376435,4.060753276,1.592694859,15.14313313,15.75883483,1
244.2476815,2.449370132,0.3378757651,10.87498613,11.15252875,1
244.2577185,-0.7686267301,-0.417065301,8.265855596,8.311985277,1
244.2677565,-3.023702218,-0.8571969907,5.874288846,6.662194175,1
244.2777945,-4.123871338,-1.128309796,3.709803393,5.66056879,1
244.2878325,-4.403806495,-1.172723565,1.896942008,4.936312509,1
244.2978705,-4.203437325,-1.184333358,0.1249620152,4.36888388,1
244.3079085,-3.706914576,-1.330193029,-1.622657307,4.259535879,1
244.3179455,-3.129191251,-1.633525235,-3.328534527,4.851740376,1
244.3279835,-2.612684765,-1.890949489,-5.125613108,6.055883204,1
244.3380215,-2.309003334,-2.302703691,-6.989751651,7.713012954,1
244.3480591,-2.119521972,-2.84539547,-8.621295556,9.322842155,1
244.3580971,-1.930427111,-3.333811931,-9.863158207,10.58880261,1
244.3681341,-1.538352737,-3.787564929,-10.87645495,11.61935668,1
244.3781721,-1.282279044,-4.28918148,-11.88383782,12.69909126,1
244.3882101,-1.239443073,-4.694268687,-12.60871247,13.51118084,1
244.3982481,-1.144415513,-5.242921118,-13.17574387,14.22666986,1
244.4082861,-1.222767545,-5.788507268,-13.73558436,14.95554261,1
244.4183241,-1.490550872,-6.200447119,-14.36983652,15.72130682,1
244.4283611,-1.686184528,-6.536155651,-14.93150602,16.38640965,1
244.4383991,-1.733566709,-6.878350498,-15.4542588,17.00444277,1
244.4484371,-1.611258453,-7.213091315,-16.02629658,17.64842832,1
244.4584751,-1.264099319,-7.555426496,-16.42885399,18.12704223,1
244.4685131,-0.8114230862,-7.993294655,-16.44192135,18.29994384,1
244.4785511,-0.3972609643,-8.294791712,-15.97136784,18.00127708,1
244.4885881,-0.1099083219,-8.355810331,-15.0374985,17.2034301,1
244.4986261,-0.1277420738,-8.213382683,-13.89274816,16.13952988,1
244.5086641,-0.2256422065,-8.076628003,-13.10956742,15.39946727,1
244.5187021,-0.1688994188,-7.774587155,-12.798333,14.9756489,1
244.5287401,-0.3061444789,-7.177097025,-12.35978714,14.29576106,1
244.5387771,-0.912103442,-6.426394057,-12.16708513,13.79015714,1
244.5488151,-1.154652014,-5.163931081,-12.55187402,13.62163526,1
244.5588531,-0.2333330492,-3.388757632,-12.90832731,13.34777272,1
244.5688911,2.199019985,-0.9868386787,-12.41058424,12.64247368,1
244.5789291,4.474112247,0.2376545253,-8.335146271,9.463024011,1
244.5889671,7.044802601,-1.8374289,0.9049022305,7.336500303,1
244.5990041,10.6214111,-5.415837902,14.70855637,18.93376097,1
244.6090421,11.64831665,-8.626973203,30.27387952,33.56509688,1
244.6190801,9.712178421,-10.61331855,41.85380363,44.25731373,1
244.6291181,7.69253844,-8.656462466,47.92668906,49.30595313,1
244.6391561,7.968181449,-4.840575963,47.7315511,48.63356929,1
244.6491941,10.15803797,-1.635196808,42.55306046,43.77924803,1
244.6592311,10.87200054,0.9774701236,37.91672832,39.45673745,1
244.6692691,6.779254811,1.935306613,33.18247169,33.92315043,1
244.6793071,1.256385526,0.8727979468,25.42346445,25.46944886,1
244.6893451,-2.94903152,0.5940506151,16.35777992,16.63209689,1
244.6993831,-4.684818417,1.504668097,8.03720549,9.423811425,1
244.7094211,-4.421653951,2.430820279,1.944886252,5.407632886,1
244.7194581,-3.471166828,2.96764847,-1.730997443,4.883880499,1
244.7294961,-2.426335172,3.116334101,-3.93309628,5.573857456,1
244.7395341,-1.580103611,2.823912799,-5.280680097,6.19328614,1
244.7495721,-1.407737926,2.171923111,-6.475628198,6.973717561,1
244.7596101,-1.80034542,1.220141268,-8.179196352,8.463406011,1
244.7696481,-2.292988834,0.08916682273,-10.19216232,10.44729253,1
244.7796851,-2.968648636,-0.853566016,-11.78670505,12.18473904,1
244.7897231,-3.962188809,-1.503155422,-12.77030612,13.4550784,1
244.7997611,-4.63967645,-2.083263973,-13.41656261,14.34819636,1
244.8097991,-4.94984639,-2.505748839,-14.09503259,15.14759718,1
244.8198371,-4.727322704,-2.531925361,-14.98612837,15.91672924,1
244.8298751,-4.260438907,-2.196736355,-16.04164085,16.74249776,1
244.8399121,-3.688627409,-1.834691234,-17.17723444,17.66435527,1
244.8499501,-3.037381487,-1.499161189,-18.14870956,18.46209169,1
244.8599881,-2.458560054,-1.171790934,-18.84083045,19.03666209,1
244.8700261,-2.050770995,-1.065947852,-19.32899343,19.46668677,1
244.8800641,-1.819667252,-1.298830172,-19.34939086,19.47811786,1
244.8901011,-1.771321304,-1.682503852,-18.76937864,18.92770385,1
244.9001391,-1.89027355,-2.113941828,-17.77026373,17.99511482,1
244.9101771,-2.155976731,-2.407270617,-16.445425,16.75992813,1
244.9202151,-2.415904908,-2.468547099,-14.86471796,15.26073921,1
244.9302531,-2.685359516,-2.336266855,-13.58085066,14.03954427,1
244.9402911,-2.873106594,-2.093121501,-12.76094707,13.24679845,1
244.9503281,-3.270581311,-1.727842431,-12.21021654,12.7581946,1
244.9603661,-3.547065149,-1.05954632,-11.4598071,12.04290199,1
244.9704041,-4.450800275,0.2485385326,-10.64587819,11.54149544,1
244.9804421,-5.735665981,1.865684985,-9.82793458,11.53112929,1
244.9904801,-6.549404272,3.569793861,-8.535867151,11.33574667,1
245.0005181,-5.885299737,4.852970306,-4.796821833,9.010969619,1
245.0105551,-2.663282769,4.821276643,4.040099741,6.830826413,1
245.0205931,4.535725527,1.653334578,19.49430591,20.08318412,1
245.0306311,13.79680705,-3.448572309,41.28535136,43.66605973,1
245.0406691,21.33565727,-8.974697762,61.05427292,65.29456113,1
245.0507071,26.03835063,-12.43109745,68.16812646,74.02311364,1
245.0607451,24.12023468,-10.36907919,62.00573185,67.33508972,1
245.0707821,17.42305841,-7.785341354,47.75383133,51.42570283,1
245.0808201,10.70137411,-5.892080169,32.38881976,34.61606075,1
245.0908581,4.940556918,-3.304000487,20.62969252,21.46880843,1
245.1008961,1.038860479,-1.374245367,12.11189911,12.23380078,1
245.1109341,-0.9555521281,-0.02088420779,5.308002382,5.393366788,1
245.1209721,-2.133481323,1.253977643,0.6457004231,2.55756359,1
245.1310091,-3.062173973,1.942071987,-1.856152416,4.073555552,1
245.1410471,-3.580917604,1.973613769,-3.204257805,5.194746411,1
245.1510851,-3.578060946,1.670427597,-4.235028954,5.790364301,1
245.1611231,-2.753938,1.228328685,-5.408549933,6.192364512,1
245.1711611,-1.427647695,0.8015505011,-7.123213179,7.30895527,1
245.1811981,-0.1816459469,0.2734394851,-9.240597555,9.246426746,1
245.1912361,0.6052420762,-0.3229735878,-11.12383427,11.14496832,1
245.2012741,1.052467973,-1.180679286,-12.71868339,12.81665322,1
245.2113121,1.592120516,-1.922156663,-13.88182206,14.10441483,1
245.2213501,2.011290157,-2.332584132,-14.69234087,15.01169934,1
245.2313881,2.098049681,-2.616298344,-15.41320783,15.77383293,1
245.2414251,1.944453266,-2.823844679,-16.00107871,16.36427564,1
245.2514631,1.691070608,-2.972370681,-16.53478215,16.88471877,1
245.2615011,1.219034828,-3.02664863,-17.14184242,17.4496249,1
245.2715391,0.7491218074,-3.063060996,-18.07687535,18.34984873,1
245.2815771,0.3126820497,-3.187332163,-19.3535494,19.61674618,1
245.2916151,-0.3214654447,-3.343142918,-20.86074408,21.12937737,1
245.3016521,-0.8263180641,-3.509019948,-22.21386696,22.5044864,1
245.3116901,-1.085927422,-3.893148687,-22.76628617,23.12227565,1
245.3217281,-1.158797836,-4.369654955,-22.08845588,22.54632077,1
245.3317661,-0.9220050439,-4.752256694,-20.31304474,20.88190182,1
245.3418041,-0.5715020339,-5.113588309,-18.13995511,18.85559258,1
245.3518432,-0.3740523787,-5.303552066,-15.98148352,16.84266592,1
245.3618802,-0.2494109371,-5.450235318,-14.14751135,15.16309164,1
245.3719182,-0.4235780029,-5.49986473,-12.74805747,13.89031675,1
245.3819562,-0.7061775899,-5.297370974,-11.45657125,12.64175031,1
245.3919942,-0.8068461782,-4.766430345,-10.18324883,11.27246271,1
245.4020322,-1.252109311,-4.226116043,-9.335521839,10.32374944,1
245.4120702,-2.125184562,-4.099901555,-9.051441883,10.1614075,1
245.4221072,-2.774393899,-3.182014997,-9.004140247,9.944698213,1
245.4321452,-1.643050934,-1.899248734,-7.987287226,8.372784444,1
245.4421832,2.231576405,-1.281698269,-4.590263093,5.262432799,1
245.4522212,8.615701525,-1.602295548,3.980457557,9.625056164,1
245.4622592,16.82772415,-6.19701188,21.54277968,28.02974514,1
245.4722972,24.29446066,-12.72526151,44.17409575,51.99522896,1
245.4823342,29.42480299,-16.39873732,62.85331149,71.31112383,1
245.4923722,28.3930501,-14.98217449,71.80625001,78.65601304,1
245.5024102,21.1463946,-11.23288718,67.11477629,71.25826938,1
245.5124482,13.72615397,-7.974143854,53.32268678,55.63544911,1
245.5224862,8.863235798,-4.762878161,37.20891117,38.54536325,1
245.5325232,5.28178756,-1.467915861,22.4390409,23.09897429,1
245.5425612,2.989643941,1.864972064,10.3866372,10.96805927,1
245.5525992,1.623663028,4.793752629,1.779201888,5.364877003,1
245.5626372,0.8118452552,6.791094253,-3.776147656,7.812640078,1
245.5726752,0.5956178516,7.942347865,-6.99111873,10.59770689,1
245.5827132,0.7934543002,8.41309141,-8.355453651,11.88374026,1
245.5927502,0.6501805598,8.093526456,-8.625756397,11.84616304,1
245.6027882,0.1761403549,7.221718297,-9.092739013,11.61301612,1
245.6128262,-0.6256558755,6.09820563,-9.65384192,11.43574313,1
245.6228642,-1.916463229,4.678849871,-9.502020135,10.76349637,1
245.6329022,-3.31357618,3.188726723,-9.082899318,10.18070848,1
245.6429402,-4.53108927,1.993652762,-8.656730853,9.972181826,1
245.6529772,-5.496375697,1.156320151,-8.202532005,9.94126518,1
245.6630152,-6.109629335,0.6426269804,-7.767199783,9.903026432,1
245.6730532,-6.321741761,0.3218814741,-7.62801617,9.912348726,1
245.6830912,-6.395399137,0.2227128063,-7.784375394,10.07706462,1
245.6931292,-6.238146458,0.2712450616,-8.397889819,10.46482673,1
245.7031672,-6.160679036,0.5432545736,-9.530006078,11.36090259,1
245.7132042,-6.347444952,0.7829747741,-11.1456935,12.8502759,1
245.7232422,-6.68184663,0.8618206765,-13.10826466,14.73826352,1
245.7332802,-7.28973194,1.009751432,-15.2918863,16.97060919,1
245.7433182,-8.236037135,1.195396509,-17.64233016,19.50674484,1
245.7533562,-9.501796187,1.249558756,-19.64184052,21.85514646,1
245.7633942,-10.88580699,0.9459935385,-20.48223042,23.21459585,1
245.7734312,-12.02033522,0.2786452612,-20.06643959,23.39290705,1
245.7834692,-12.73868789,-0.6836729725,-18.57634685,22.53491158,1
245.7935072,-13.2657676,-1.490855658,-16.21550897,21.00347523,1
245.8035452,-13.72894543,-2.226645156,-13.56511931,19.42818451,1
245.8135832,-14.55804904,-2.931032621,-10.8599775,18.39746872,1
245.8236202,-16.35690049,-3.537016709,-7.888459926,18.50098595,1
245.8336582,-18.79247748,-4.077987652,-4.857103702,19.83377548,1
245.8436962,-20.66227321,-3.959831796,-1.984480673,21.13168156,1
245.8537342,-20.31306813,-2.611035558,0.7757851839,20.49487951,1
245.8637722,-17.2229854,-0.1552772702,4.555575655,17.81596494,1
245.8738102,-10.32084316,1.787033357,10.9519542,15.15449084,1
245.8838472,-0.2751237756,2.2482781,22.46213506,22.57604835,1
245.8938852,10.14952793,0.6284869511,37.17148899,38.5373521,1
245.9039232,22.21884645,-2.327315206,48.72127889,53.59903498,1
245.9139612,32.40017271,-4.985775776,54.01332715,63.18281935,1
245.9239992,37.45726347,-7.229089882,51.0112684,63.69816191,1
245.9340372,36.63932688,-7.686042184,42.44992493,56.59957283,1
245.9440742,31.05711406,-7.325567186,33.23635963,46.07454688,1
195.7652508,-0.6541315234,-4.624849665,-6.364032918,7.89417744,1
195.7752878,-0.5496713812,-4.917100228,-6.635358342,8.276955576,1
195.7853258,-0.4860177145,-5.24180196,-6.239690707,8.163727159,1
195.7953638,-0.3704783412,-5.517981158,-5.489551996,7.792339275,1
195.8054008,-0.3243242946,-5.752304817,-4.866989005,7.54200099,1
195.8154388,-0.185334736,-5.923093216,-4.432549068,7.40032928,1
195.8254768,-0.06710235447,-5.988431758,-4.2437951,7.340000987,1
195.8355148,0.0326188387,-5.732573388,-4.493486996,7.28387857,1
195.8455518,0.3068476249,-5.296010327,-5.220632701,7.442908481,1
195.8555898,0.6198834311,-5.030974168,-6.194022784,8.00380377,1
195.8656278,0.7185135338,-4.95060302,-7.075737296,8.665494229,1
195.8756648,0.248897917,-4.954722968,-7.155877479,8.70734244,1
195.8857028,-0.05515554272,-4.440964966,-6.531624643,7.898565214,1
195.8957408,-0.09087537915,-4.170274549,-6.007466199,7.313624155,1
195.9057788,-0.288610744,-4.1065896,-5.886738153,7.183387807,1
195.9158158,-0.6058930175,-3.987414574,-5.913068165,7.157580349,1
195.9258538,-0.7322982717,-3.930104259,-6.166364869,7.348879911,1
195.9358918,-0.8390413861,-3.886130859,-6.543861111,7.65690027,1
195.9459288,-1.494003506,-3.852084276,-6.640757076,7.821141495,1
195.9559668,-1.89179792,-3.613962266,-6.677766443,7.825099826,1
195.9660048,-1.433992947,-3.281198393,-6.717193633,7.612048934,1
195.9760428,-0.8037587752,-2.762780744,-7.207897818,7.76097781,1
195.9860798,-0.926115198,-1.936256347,-8.171855173,8.449023314,1
195.9961178,-1.096581196,-1.191922166,-9.131351686,9.273874723,1
196.0061558,-1.619546589,-0.9586966145,-9.276073782,9.465071323,1
196.0161928,-2.474796895,-1.01036612,-8.533930553,8.942786482,1
196.0262308,-2.405174391,-0.8291737711,-7.303915531,7.734311545,1
196.0362688,-3.59645044,0.2066870865,-6.039011343,7.031844233,1
196.0463068,-6.890389915,2.472633425,-3.573294881,8.146154034,1
196.0563438,-8.229263136,3.439942988,-2.411288239,9.239496225,1
196.0663818,-7.100755193,3.032878546,-1.281114424,7.826897901,1
196.0764198,-4.639888412,2.250807897,-0.8253432602,5.222632685,1
196.0864578,-0.8454594362,0.6499291295,-0.6443310052,1.245942204,1
196.0964948,3.016485877,-0.5427713013,-0.2811861688,3.07780009,1
196.1065328,5.556398535,-1.168120783,0.5209594327,5.701707601,1
196.1165708,5.440402055,-1.470766671,2.095447962,6.012655926,1
196.1266078,4.630378208,0.6162254861,3.317391488,5.72933002,1
196.1366458,1.822275695,1.232480208,3.961978601,4.531773451,1
196.1466838,-1.03554255,2.435573772,4.728932151,5.419148204,1
196.1567208,-3.193103657,5.353594292,6.836363397,9.251634844,1
196.1667588,-5.56709777,7.473396492,10.69499246,14.18545369,1
196.1767968,-6.466391936,7.818678085,13.9886004,17.28082442,1
196.1868348,-4.856062606,6.028111548,15.29027597,17.13802825,1
196.1968718,-3.597754661,4.990757604,16.92770101,18.01106775,1
196.2069098,-2.704222341,4.601796141,18.10436428,18.87478085,1
196.2169478,-2.378139204,4.207541778,18.67806267,19.29323662,1
196.2269848,-2.375611599,3.640825544,18.40992574,18.91624981,1
196.2370228,-1.907147592,2.971319352,17.18000369,17.53905577,1
196.2470608,-1.386686926,2.524151781,14.74525817,15.02387704,1
196.2570988,-0.97531082,2.021708872,11.21636295,11.43876461,1
196.2671358,-0.4121202011,1.44163482,8.54649622,8.677024354,1
196.2771738,0.04765509536,1.22332113,6.889314027,6.997244698,1
196.2872118,-0.1160699716,0.3419679755,4.182436758,4.197998519,1
196.2972498,-0.3984349025,-0.5003047282,0.9496112108,1.144909011,1
196.3072862,-0.3796977558,-0.8815344179,-0.04780625045,0.9610196425,1
196.3173242,-0.4501470565,-1.588127452,-1.192765335,2.036533899,1
196.3273622,-0.9147502573,-2.65716892,-2.122148688,3.521481188,1
196.3373992,-0.8839643745,-3.107801259,-2.410660833,4.031266219,1
196.3474372,-0.7869652064,-3.704893194,-2.82849,4.727145385,1
196.3574752,-0.7431122585,-4.28511825,-3.295652125,5.456718535,1
196.3675132,0.02414249562,-4.932252703,-3.508991296,6.053157812,1
196.3775502,0.1233191851,-5.488394247,-4.041503658,6.816995735,1
196.3875882,-0.07667527889,-5.876069908,-4.451620347,7.372313095,1
196.3976262,-0.2853727204,-6.12778494,-4.854513386,7.82288221,1
196.4076632,-0.5099031519,-6.326527707,-5.178975382,8.191870364,1
196.4177012,-0.7608479599,-6.490026966,-5.482971539,8.530083033,1
196.4277392,-1.002223288,-6.460789134,-5.73363115,8.696020579,1
196.4377772,-1.281015022,-6.283720241,-5.856580553,8.684795641,1
196.4478142,-1.455158553,-6.07612479,-6.107273492,8.737022856,1
196.4578522,-1.4666438,-5.960010781,-6.06594888,8.629513797,1
196.4678902,-1.355405346,-5.8570916,-5.928487272,8.443317298,1
196.4779272,-1.315567681,-5.645682594,-5.997808937,8.341352548,1
196.4879652,-1.084714856,-5.423315907,-6.375740213,8.44032138,1
196.4980032,-0.4187587278,-5.051586773,-6.84494594,8.51746281,1
196.5080412,-0.2362257582,-4.567441995,-7.207500207,8.536122552,1
196.5180782,-0.3482414532,-4.19379205,-7.360463369,8.478536718,1
196.5281162,0.2142759684,-4.103249086,-7.39018652,8.455614942,1
196.5381542,1.045416377,-3.952135983,-7.021930633,8.125255937,1
196.5481912,1.377403887,-3.810286332,-6.279455867,7.473091019,1
196.5582292,1.48264339,-3.656942517,-5.49164413,6.762367577,1
196.5682672,1.666548701,-3.036427806,-5.056383244,6.128971357,1
196.5783052,1.218410492,-1.565416282,-3.774916232,4.264392668,1
196.5883422,0.003748065233,-0.9248061526,-2.90408982,3.04778906,1
196.5983802,-0.4848234938,-0.07088959605,-2.236999698,2.290032053,1
196.6084182,-0.08157004707,0.5490482873,-2.142779419,2.213506569,1
196.6184552,1.351481572,0.4126777697,-3.340883262,3.627437987,1
196.6284932,1.535353992,-1.897351313,-4.557062602,5.169533194,1
196.6385312,1.380834448,-2.513258418,-4.567850715,5.393369244,1
196.6485692,1.560107449,-1.399686602,-4.374439439,4.850647198,1
196.6586062,0.4305376148,-0.1712833652,-5.787177027,5.805697079,1
196.6686442,-1.026765368,0.8508733732,-4.930520173,5.107666962,1
196.6786822,-1.277098264,2.031051114,-0.2484821069,2.412030672,1
196.6887192,-0.8965707522,2.777350252,3.247062932,4.365882639,1
196.6987572,-0.2967063785,2.451717204,5.175245444,5.734293097,1
196.7087952,0.6747665667,1.976471449,6.697509567,7.015581494,1
196.7188332,1.170224026,2.278512882,9.00560322,9.362795234,1
196.7288702,1.027329478,2.697932784,10.77192428,11.15206706,1
196.7389082,0.5090755882,2.823768373,11.2512568,11.61135674,1
196.7489462,-0.2006231036,3.026684298,10.99811563,11.40875168,1
196.7589832,-0.9582186046,3.160044961,10.65303986,11.15308591,1
196.7690212,-1.499914457,3.061964058,11.03953146,11.55407383,1
196.7790592,-1.388662847,2.7302176,11.92471922,12.31183987,1
196.7890972,-0.783856388,2.35536927,12.74712893,12.9865889,1
196.7991342,0.08824038623,2.238799617,13.25395973,13.44200352,1
196.8091722,0.4875613429,2.188670852,12.06045531,12.26713408,1
196.8192102,0.4513361974,2.161787694,9.826608431,10.07170609,1
196.8292482,0.6580796365,1.726260321,7.085411514,7.322301539,1
196.8392852,0.9164164214,1.648804594,5.015760298,5.358752375,1
196.8493232,1.011763751,1.689066182,4.541722432,4.950136675,1
196.8593612,0.9047593392,1.326034051,5.124825488,5.370362376,1
196.8693982,0.6617102458,0.5367078848,5.974579119,6.035023733,1
196.8794362,0.2947388087,-0.5475544699,6.319876499,6.350395722,1
196.8894742,-0.1311950739,-1.438964835,5.988835216,6.160680091,1
196.8995122,-0.4769446996,-2.029255435,4.960711686,5.380893448,1
196.9095492,-0.5998724319,-2.313565478,3.464327924,4.208800319,1
196.9195872,-0.6846313311,-2.463224671,1.735726671,3.090136391,1
196.9296252,-0.7212050803,-2.690715858,-0.0002239483595,2.785693567,1
196.9396622,-0.6354370978,-2.980323479,-1.553480068,3.420439836,1
196.9497002,-0.688758369,-3.136239777,-3.030485573,4.415227156,1
196.9597382,-0.7200520094,-3.389317503,-4.537325326,5.70905151,1
196.9697762,-0.7426107135,-3.591455163,-5.956793643,6.995242052,1
196.9798132,-0.9089888495,-3.600342054,-7.202936456,8.10376562,1
196.9898512,-0.9760024725,-3.730596384,-8.231831233,9.090268184,1
196.9998892,-1.051377979,-3.830163942,-8.950191497,9.791908869,1
197.0099262,-1.411167756,-3.907155107,-9.200637099,10.0949977,1
197.0199642,-1.875016995,-4.141941281,-9.168579154,10.23397332,1
197.0300022,-2.249737126,-4.526922544,-9.167202135,10.4686169,1
197.0400402,-2.409853333,-4.818467056,-9.321131256,10.76608126,1
197.0500772,-2.184634373,-4.930758739,-9.522143912,10.94331914,1
197.0601152,-1.912734168,-4.862457413,-9.670777211,10.99208697,1
197.0701532,-1.533360676,-4.831618613,-9.689132205,10.93503618,1
197.0801902,-1.035017251,-4.872956089,-9.680965984,10.88751873,1
197.0902282,-0.9290423141,-4.710837942,-9.559924527,10.69800312,1
197.1002662,-1.271091274,-4.654399154,-9.232289246,10.41701825,1
197.1103042,-1.76871096,-4.746043735,-8.851812093,10.19842375,1
197.1203412,-2.245990815,-4.870769522,-8.523292129,10.0705203,1
197.1303792,-2.394599555,-4.890524633,-8.323665263,9.946594474,1
197.1404172,-2.056841136,-4.744667593,-8.411908518,9.874344076,1
197.1504542,-1.338528235,-4.427164367,-8.789392481,9.932012,1
197.1604922,-0.4837817392,-3.900613827,-9.145928795,9.954739902,1
197.1705302,0.4798967395,-3.253879032,-9.260937095,9.827664295,1
197.1805682,1.286032664,-2.336332782,-8.831891214,9.225759226,1
197.1906052,1.769062817,-1.420280642,-7.419375236,7.758473384,1
197.2006432,1.953610006,-0.6980014282,-4.752133318,5.185226043,1
197.2106812,2.414420447,-0.1893968698,-1.339121143,2.767407216,1
197.2207192,2.99159808,0.01191530988,2.500127326,3.898773871,1
197.2307562,3.110635112,-0.07166369431,7.291463301,7.927586237,1
197.2407942,3.045293354,-0.4124327713,13.24203843,13.59395065,1
197.2508322,3.188210122,-0.9057747813,20.10187138,20.37327526,1
197.2608692,2.974345286,-1.081097476,26.43985554,26.62858356,1
197.2709072,2.005761468,-1.058976801,31.12351737,31.20605462,1
197.2809452,0.311342745,-1.079854577,33.31081106,33.32976378,1
197.2909832,-1.800512066,-1.1063258,33.28117737,33.34820187,1
197.3010202,-3.525340111,-1.26466036,31.47553613,31.69758293,1
197.3110582,-4.233656613,-1.547574088,27.78239262,28.14569547,1
197.3210962,-4.00582921,-1.603521417,23.35840096,23.75358591,1
197.3311332,-3.083251139,-1.76654676,18.76199127,19.09553459,1
197.3411712,-1.944260162,-1.765942158,14.53983145,14.77516152,1
197.3512092,-1.095041258,-1.7023379,11.26761731,11.44798102,1
197.3612472,-0.5781519992,-1.896969928,8.840394235,9.060095191,1
197.3712842,-0.2343142669,-2.277222402,6.904243138,7.273872308,1
197.3813222,0.1968746912,-2.766588744,5.177048725,5.873210912,1
197.3913602,0.9977726796,-3.408441991,3.286653845,4.838917299,1
197.4013972,2.003356508,-4.00562485,1.03504254,4.596714131,1
197.4114352,2.638040046,-4.065902627,-0.9824918586,4.945311892,1
197.4214732,2.680293781,-3.81331402,-2.492445838,5.285605436,1
197.4315112,2.375606337,-3.814447795,-3.62724714,5.774983919,1
197.4415482,1.974729418,-4.094363072,-4.434379832,6.350361386,1
197.4515862,1.481299846,-4.437928507,-4.88574278,6.764609462,1
197.4616242,0.9589147156,-4.743362494,-5.056311908,6.998949585,1
197.4716612,0.5634497967,-4.950449238,-5.142091731,7.15999516,1
197.4816992,0.3866959593,-5.192436258,-5.287346508,7.420711634,1
197.4917372,0.4665132669,-5.467607396,-5.428712887,7.719021238,1
197.5017752,0.6645996474,-5.680682273,-5.432538135,7.88823899,1
197.5118122,0.7767116021,-5.807274492,-5.319915499,7.913862448,1
197.5218502,0.7260898443,-5.956172084,-5.153025439,7.909289699,1
197.5318882,0.5902757988,-6.110109392,-4.974072574,7.900839213,1
197.5419262,0.3874751738,-6.196386228,-4.985346006,7.962349785,1
197.5519632,0.2779704195,-6.18400358,-5.221134392,8.098111642,1
197.5620012,0.2836424379,-6.097929642,-5.612237105,8.292309948,1
197.5720392,0.3475649669,-5.938742119,-5.947618777,8.412112011,1
197.5820762,0.3903372763,-5.754210425,-6.1580244,8.437094602,1
197.5921142,0.4118597807,-5.485765339,-6.272980075,8.343472231,1
197.6021522,0.3884899947,-5.176663393,-6.31078174,8.171580908,1
197.6121902,0.2856910099,-4.939943545,-6.367231345,8.063888428,1
197.6222272,0.1718669173,-4.762952421,-6.438926979,8.010932196,1
197.6322652,-0.0477507019,-4.612975432,-6.458534448,7.936906808,1
197.6423032,-0.3020013794,-4.465428547,-6.511697332,7.901484613,1
197.6523402,-0.573829445,-4.34066943,-6.611765411,7.930077754,1
197.6623782,-0.8963706312,-4.228813949,-6.789368155,8.048718386,1
197.6724162,-1.246744491,-4.157805362,-7.007949355,8.243365297,1
197.6824542,-1.615349019,-4.06821023,-7.329499438,8.537051537,1
197.6924912,-1.842316149,-4.085392274,-7.848345687,9.037759061,1
197.7025292,-1.856672526,-4.234306823,-8.467110327,9.647203969,1
197.7125672,-1.673383511,-4.416104359,-9.080421853,10.23505013,1
197.7226042,-1.440241136,-4.667969665,-9.648783494,10.8149553,1
197.7326422,-0.9435594888,-5.198393986,-10.2939144,11.57057813,1
197.7426802,-0.360489762,-5.679847875,-11.04695508,12.42681944,1
197.7527182,-0.02470887154,-5.979578488,-11.50636029,12.96735503,1
197.7627552,0.1702217301,-6.470778517,-11.76421198,13.42745819,1
197.7727932,0.7952578007,-6.722731531,-12.06045531,13.83047853,1
197.7828312,1.419101112,-6.569826842,-12.14071653,13.87708437,1
197.7928682,2.099958797,-6.796792949,-12.62456661,14.49089036,1
197.8029062,2.460010456,-7.506678843,-14.00587658,16.08000179,1
197.8129442,2.186448472,-8.160464212,-14.95646311,17.17758778,1
197.8229822,1.929165574,-8.319459946,-14.85704056,17.13670761,1
197.8330192,2.39166703,-8.060813039,-13.49370376,15.89895655,1
197.8430572,3.159001818,-6.608627796,-8.379635981,11.12975979,1
197.8530952,4.168468052,-6.660792561,-4.023462659,8.82782732,1
197.8631322,4.828250617,-7.16611303,0.7767815495,8.675746052,1
197.8731702,5.365692181,-7.509968487,9.188350344,13.02367311,1
197.8832082,5.588333688,-8.027768669,20.69353476,22.88879473,1
197.8932462,5.672678604,-9.102401537,33.17532172,34.86595714,1
197.9032832,4.874951451,-8.94361221,43.78623824,44.95540023,1
197.9133212,2.726052044,-7.257938874,50.59326732,51.18386205,1
197.9233592,-0.3024767581,-5.547102047,52.75964669,53.05131621,1
197.9333972,-3.602649658,-4.406764601,51.54965662,51.86295168,1
197.9434342,-5.766582549,-3.359531494,47.80192351,48.26555519,1
197.9534722,-5.762536275,-2.418539079,42.21162984,42.67174533,1
197.9635102,-4.229489594,-2.135811438,35.15631862,35.47417387,1
197.9735472,-2.206078744,-2.424185004,28.68155172,28.86823281,1
197.9835852,-0.1653089361,-3.129674231,23.45603075,23.664479,1
197.9936232,1.916859232,-3.874249316,19.93863349,20.40179557,1
198.0036612,3.419138303,-4.865969543,17.97344512,18.9317959,1
198.0136982,4.30272217,-6.322788413,16.37608638,18.07393915,1
198.0237362,4.987585489,-8.15313765,14.08157347,17.0188241,1
198.0337742,5.692267361,-9.761284508,10.91719835,15.71209097,1
198.0438122,6.476770159,-10.89952573,7.600168805,14.78211009,1
198.0538492,6.757536498,-11.35949461,5.143953484,14.18318281,1
198.0638872,6.536871935,-11.71274712,3.217008829,13.79377706,1
198.0739252,5.950177519,-12.48145367,0.9801307529,13.86188856,1
198.0839622,5.152752959,-13.11562864,-1.025896325,14.12880183,1
198.0940002,4.343132569,-13.67124394,-2.696009635,14.59569044,1
198.1040382,3.840984507,-14.11642989,-4.10582186,15.19488493,1
198.1140762,3.468011085,-14.21276511,-5.274786104,15.5516289,1
198.1241132,3.265175267,-14.10655745,-6.232702115,15.76397502,1
198.1341512,3.309929564,-14.26997777,-7.113923707,16.28483374,1
198.1441892,3.304304835,-14.25564859,-7.658515247,16.51650093,1
198.1542262,3.153686991,-13.91041728,-7.875632889,16.29328217,1
198.1642642,2.961862358,-13.40779998,-8.036414947,15.90992439,1
198.1743022,2.855256214,-12.95007526,-8.162540558,15.57189794,1
198.1843402,2.885148058,-12.58037102,-8.313271837,15.35253409,1
198.1943772,2.872438257,-12.09553977,-8.4549756,15.03461328,1
198.2044152,2.824354264,-11.66038648,-8.530484789,14.72109916,1
198.2144532,2.882888694,-11.55938986,-8.706423415,14.7557565,1
198.2244912,2.395933451,-11.66355801,-9.173709501,15.03116857,1
198.2345282,1.676782351,-11.61708434,-9.649330208,15.19466423,1
198.2445662,1.236089987,-11.5436667,-9.863616629,15.23401104,1
198.2546042,0.8180599684,-11.32862832,-9.968397564,15.11211407,1
198.2646412,0.3521935862,-10.96087939,-10.00762887,14.84646601,1
198.2746792,-0.1353814611,-10.64663365,-9.987546026,14.59863733,1
198.2847172,-0.5911473629,-10.35104754,-10.0779966,14.45889539,1
198.2947552,-1.026657633,-10.16706139,-10.2217656,14.45363813,1
198.3047927,-1.372815723,-10.15254627,-10.46218791,14.64295716,1
198.3148307,-1.665363324,-10.21691475,-10.81100005,14.96784902,1
198.3248687,-1.815376565,-10.60427408,-11.09973088,15.45801561,1
198.3349057,-1.930274645,-10.94407215,-11.21244064,15.78662411,1
198.3449437,-1.875311987,-11.08917432,-11.21834165,15.88514311,1
198.3549817,-1.576214043,-11.3361303,-11.13195138,15.96598392,1
198.3650197,-1.185138811,-11.70884001,-10.95833234,16.08062611,1
198.3750567,-0.7416178563,-12.04530167,-10.87667247,16.24627013,1
198.3850947,-0.3192790246,-12.30392869,-10.80753148,16.37960125,1
198.3951327,0.0263820523,-12.47885867,-10.78977583,16.49672307,1
198.4051697,0.2096253124,-12.53373713,-11.06644034,16.72138185,1
198.4152077,0.3082169697,-12.66893762,-11.52238868,17.12782587,1
198.4252457,0.1408728737,-12.82585233,-11.91806859,17.50893178,1
198.4352837,-0.026506598,-13.15482019,-12.07243275,17.85479289,1
198.4453207,-0.09592868909,-13.41610419,-11.84860367,17.89945426,1
198.4553587,-0.7537460048,-12.8808337,-10.35442489,16.54382437,1
198.4653967,-1.466654325,-12.1575647,-7.151878569,14.18121368,1
198.4754347,-0.6253123516,-11.43506987,-2.490539646,11.719839,1
198.4854717,2.803186174,-10.36784075,3.644857199,11.34173525,1
198.4955097,7.806232871,-8.535058481,13.2994195,17.6255228,1
198.5055477,10.50948721,-6.023968796,26.25367551,28.91354353,1
198.5155847,10.57458543,-5.090157931,38.01486565,39.78519291,1
198.5256227,7.965932609,-3.76581241,46.80835527,47.63044771,1
198.5356607,3.132805707,-0.5172357796,52.13035998,52.22697039,1
198.5456987,-1.157088695,2.021040827,53.51434915,53.56499814,1
198.5557357,-3.53463046,3.796784234,51.9143077,52.17283323,1
198.5657737,-4.279063458,5.165370666,47.850708,48.318544,1
198.5758117,-3.52219694,5.557358648,42.150482,42.66090996,1
198.5858487,-1.258515959,5.395948014,36.24093503,36.66204425,1
198.5958867,1.811429841,4.727465669,29.68451059,30.11312635,1
198.6059247,4.527276593,3.734551441,22.65554224,23.4033481,1
198.6159627,6.53577909,3.329939905,17.12929429,18.63377662,1
198.6259997,8.360618497,2.679580421,12.9974915,15.68486143,1
198.6360377,9.940173054,1.652812568,9.067330522,13.55563767,1
198.6460757,10.50054214,0.6083267748,5.008453032,11.6497231,1
198.6561127,9.885816168,-0.4486784917,1.564736543,10.01893578,1
198.6661507,8.498023387,-1.660254319,-0.878986786,8.703186983,1
198.6761887,6.443495994,-2.808374993,-2.613658619,7.499121422,1
198.6862267,4.303291981,-4.014001279,-3.905387494,7.062760057,1
198.6962637,2.684684455,-5.293961463,-4.818836015,7.645569902,1
198.7063017,1.859317514,-6.467267264,-5.374338459,8.611975462,1
198.7163397,1.701933565,-7.603154978,-5.772571267,9.696758351,1
198.7263777,1.721515305,-8.737237072,-6.017894708,10.74792926,1
198.7364147,1.679645294,-9.53216604,-5.923061056,11.34751294,1
198.7464527,1.481621296,-9.882222469,-5.764223782,11.53602178,1
198.7564907,1.286699685,-10.19317272,-5.63349992,11.71719623,1
198.7665277,1.560341191,-10.57035555,-5.503911003,12.01915627,1
198.7765657,1.466718059,-11.12303321,-5.539060371,12.51216685,1
198.7866037,0.5897709283,-11.44523701,-5.783000361,12.83683657,1
198.7966417,-0.138167367,-11.39683609,-5.927913076,12.84706646,1
198.8066787,-0.5904404345,-11.16903325,-5.913262877,12.65158494,1
198.8167167,-0.7437810338,-11.07840375,-5.841574259,12.54624365,1
198.8267547,-0.583660588,-11.09493032,-5.580550459,12.43304797,1
198.8367917,-0.3663172433,-11.03325389,-5.026046135,12.12963394,1
198.8468297,-0.1541557011,-10.97087228,-4.416937003,11.82764284,1
198.8568677,0.2869904074,-11.11990261,-4.187516234,11.88570106,1
198.8669057,0.43532579,-11.06635147,-4.383060574,11.91070373,1
198.8769427,0.1277531835,-10.77822991,-4.615732394,11.72567894,1
198.8869807,0.1777135482,-10.83258329,-4.527916279,11.74216627,1
198.8970187,-0.06232547164,-10.5598446,-3.748621303,11.20563983,1
198.9070567,-0.7913615817,-10.45492216,-3.847965205,11.16863853,1
198.9170937,-0.980717521,-10.77485139,-4.512364147,11.72265583,1
198.9271317,-0.9744197774,-10.63855747,-5.398445944,11.96961226,1
198.9371697,-0.7681376106,-10.32867142,-5.870109841,11.90502743,1
198.9472067,-0.59597307,-10.23285192,-6.090915906,11.92332584,1
198.9572447,-0.7082898965,-10.46501562,-6.305014046,12.23811377,1
198.9672827,-0.971873315,-10.61777998,-6.46956522,12.47144994,1
198.9773207,-1.231780589,-10.35143931,-6.544689077,12.30863657,1
198.9873577,-1.259398158,-10.06384985,-6.742532542,12.17903537,1
198.9973957,-1.35658853,-9.873837562,-7.279809215,12.34214823,1
199.0074337,-1.557157675,-9.415980111,-7.973866696,12.43655787,1
199.0174717,-0.7958522433,-9.351931465,-8.649914169,12.7637384,1
199.0275087,1.160352464,-9.551615049,-9.450692106,13.48685839,1
199.0375467,3.058950403,-8.74879234,-10.3894275,13.92259849,1
199.0475847,4.312079469,-6.770658234,-11.90458959,14.35810209,1
199.0576217,3.35318288,-4.526636031,-12.37914727,13.60064544,1
199.0676597,-1.416281147,-1.974294239,-5.512850227,6.024550411,1
199.0776977,-5.325846915,1.904504212,6.919520743,8.937088394,1
199.0877357,-6.136523019,2.431372256,12.63197152,14.25255031,1
199.0977727,-5.280650277,5.198672898,14.40283119,16.19731501,1
199.1078107,-1.644491834,7.463926342,17.06925508,18.70224636,1
199.1178487,1.456699148,7.263907712,26.34315896,27.36509367,1
199.1278857,0.2089666235,4.894974949,34.83023812,35.17314223,1
199.1379237,-3.73367085,1.273785524,40.50610462,40.69775595,1
199.1479617,-7.138689004,-1.899801004,45.11930985,45.72004206,1
199.1579997,-7.830975364,-2.683198385,48.32817292,49.03198983,1
199.1680367,-5.450560423,-2.565314717,48.84964165,49.21968039,1
199.1780747,-2.652689076,-2.752337617,45.7525633,45.91197198,1
199.1881127,-1.081370029,-3.120686476,39.3222025,39.46065958,1
199.1981507,-0.4944966888,-3.314177858,30.99811097,31.17869763,1
199.2081877,-0.4227209473,-3.26161139,22.41318685,22.6532061,1
199.2182257,-0.6754123186,-3.203088947,14.53291887,14.89703634,1
199.2282637,-1.301011184,-3.892169278,7.285157079,8.361526502,1
199.2383007,-1.864055366,-4.238478227,0.7277163935,4.687106915,1
199.2483387,-1.543965041,-4.345091679,-4.717763384,6.597040328,1
199.2583767,-0.9814640643,-5.22718743,-8.744312203,10.23473283,1
199.2684147,-0.2363337855,-6.673034291,-11.56329112,13.3527129,1
199.2784517,-0.04678313389,-8.556734694,-12.13231408,14.84631073,1
199.2884897,0.09498363286,-10.72181481,-10.15045764,14.76475956,1
199.2985277,0.5905262424,-13.03782208,-7.818220248,15.21374687,1
199.3085642,2.188020203,-15.28796866,-6.718720926,16.84193068,1
199.3186022,4.389279088,-17.2287718,-6.630231503,18.97515003,1
199.3286402,6.261342362,-18.44118963,-7.447330774,20.85053042,1
199.3386782,7.30699526,-19.11488711,-9.065740664,22.38210764,1
199.3487152,8.31835833,-19.48294594,-11.14988713,23.93951234,1
199.3587532,9.667803901,-19.50848892,-13.59579147,25.66891345,1
199.3687912,9.907076644,-18.55590265,-16.4232126,26.68695566,1
199.3788292,8.335134577,-17.60033546,-19.10362771,27.27993527,1
199.3888662,6.304128193,-16.77496004,-21.72706521,28.16392514,1
199.3989042,3.708621671,-16.42187709,-24.1668978,29.45285846,1
199.4089422,1.408349983,-16.2189483,-26.24573967,30.8848925,1
199.4189792,1.041513069,-15.3191694,-27.03066055,31.08726926,1
199.4290172,1.624354754,-14.96344585,-26.8152421,30.75061706,1
199.4390552,2.402143925,-14.59875735,-25.15396862,29.18246304,1
199.4490932,2.796758038,-13.90588569,-22.69608684,26.76392852,1
199.4591302,2.431930226,-13.40509038,-19.7522991,23.99508392,1
199.4691682,-0.1781315511,-12.43694115,-13.57847552,18.41423997,1
199.4792062,-2.371697912,-11.75199714,-9.497339439,15.29489602,1
199.4892442,-2.422473232,-10.70887843,-10.19793586,14.98487069,1
199.4992812,-1.244564503,-6.959761282,-7.211749379,10.09933399,1
199.5093192,-0.3945327997,-3.225997753,-1.716351337,3.675401957,1
199.5193572,0.7935200083,0.8027423099,2.489582457,2.733512398,1
199.5293942,2.893891692,3.844761808,7.344623846,8.78067776,1
199.5394322,5.838207432,3.59370985,18.20459257,19.4526761,1
199.5494702,11.24503068,1.581448763,34.1020329,35.94301522,1
199.5595082,17.36783964,-1.0101258,50.06392123,53.0005511,1
199.5695452,21.25458212,-1.923463954,63.12301314,66.63311311,1
199.5795832,19.53694264,-2.107752112,71.28582911,73.94460209,1
199.5896212,14.17852147,-2.412157428,73.03644805,74.439047,1
199.5996592,10.52437889,-2.239951665,69.52125637,70.34902289,1
199.6096962,9.300348498,-2.158756643,61.48009991,62.21703463,1
