Time (s),Linear Acceleration x (m/s^2),Linear Acceleration y (m/s^2),Linear Acceleration z (m/s^2),Absolute acceleration (m/s^2),label
241.2793832,4.322968739,-0.07860105023,-1.896062002,4.721153244,0
115.5652595,1.336663558,-1.021291643,-0.3431719172,1.716820623,0
338.3304048,7.416828774,0.02022990435,-8.07976328,10.96778615,0
402.4368923,-4.551593701,0.3426124848,1.078437212,4.690140228,0
295.7072286,2.13213047,2.75749223,-2.386129425,4.224139838,0
41.1,4.36,-3.65,-5.5,7.91,0
509.440926,-3.597770156,0.6184310558,0.3211963266,3.664638338,0
122.806718,-0.4939222365,-0.926645979,0.06417377651,1.052021967,0
276.8852931,0.700267809,3.291946452,2.601357247,4.253744935,0
190.6163193,2.055119716,-1.479216044,1.734705747,3.069332367,0
32.3,-1.69,-1.34,-2.28,3.14,0
160.057339,4.255876617,-0.7355785596,1.148693116,4.469122673,0
40.6866405,1.413849728,-2.559549655,3.591577955,4.631381834,0
32.5703205,0.4159448283,-1.686432158,-0.7430214804,1.889217945,0
14.3,0.321,2.9,-0.0674,2.92,0
17.72628692,-0.2489855887,-0.8309770525,-2.173495427,2.340213464,0
543.7346995,-0.08154351532,0.05143854082,0.009013044387,0.09683234657,0
15.03829062,0.03931170791,-0.6052008533,-0.1712871659,0.6302005843,0
84.42325675,0.1880802231,0.3938415492,0.01914524585,0.436865971,0
0.0814,1.28,0.248,6.98,7.1,0
36.1,-1.56,-1.33,-2.67,3.37,0
16.0,-6.58,3.97,-15.3,17.1,0
12.3,3.96,5.29,-3.13,7.31,0
505.585939,6.04417268,1.48843418,-2.372150632,6.661423145,0
522.6523783,-5.470584213,0.6351745579,-0.3219647969,5.516738138,0
239.5427571,1.140733302,0.8561895154,-1.175783413,1.848458705,0
263.3134622,-2.30341822,0.7083698572,0.9493125643,2.590119244,0
103.9958683,-1.090009291,1.213350896,0.5279801846,1.714381441,0
308.275278,-4.432816286,0.9886948773,-0.5936264361,4.580367904,0
450.5024423,-4.842572787,2.02538794,-0.6534399439,5.289583279,0
70.9937075,0.1522171116,1.601223169,6.358465784,6.558747808,0
517.1609703,1.508427857,-2.091111082,-2.184996901,3.379691053,0
138.246694,0.9321970332,-0.3355027092,-0.8130091435,1.281615092,0
144.6210239,-7.732059186,0.07070825927,0.2148334274,7.735366334,0
494.5832118,-3.966710168,1.754344644,-2.75148217,5.136454888,0
42.41312712,-3.807394592,1.409302348,1.172615684,4.225803382,0
102.9619241,-6.392089028,0.8554266,0.4048862086,6.461771402,0
60.16990108,6.580299205,-1.289171595,-2.539513001,7.17017624,0
421.8618107,2.939441501,-1.276089766,-2.294062675,3.940995431,0
59.53996762,0.3305945563,-0.628337701,4.148557405,4.208875096,0
561.1125956,-1.077546535,0.8148439997,0.871271385,1.607541945,0
484.0623874,0.9716528749,2.674363535,4.854247338,5.626726121,0
480.0066577,-0.9465332365,4.950646874,2.434208155,5.597338562,0
52.77206258,0.2319935435,0.787699032,-1.325144105,1.558941201,0
135.7270723,3.066954072,-2.346383561,-3.919041912,5.501873554,0
105.0842368,0.7780476178,0.09503421128,-0.7290948746,1.070499385,0
64.6,-0.061,0.664,-1.01,1.21,0
26.2,4.76,4.61,-3.53,7.5,0
477.1254869,-0.314483723,0.8432772553,-2.356710328,2.522716812,0
372.2506821,1.006349083,0.327026293,1.968300258,2.234701452,0
176.9041227,-1.477972634,2.04056395,-2.317623446,3.423402222,0
0.935,3.99,-1.01,5.27,6.69,0
223.8227866,-2.309902198,-1.240015223,-1.42007175,2.981591805,0
506.138085,3.421215819,-3.045986542,-2.07706914,5.02960912,0
176.2114841,-1.89324072,-0.8528605494,-2.319827992,3.113411867,0
11.8,4.38,1.76,-6.09,7.71,0
56.2,-1.5,-1.08,-2.74,3.3,0
410.2570473,9.848091102,-2.241673962,-6.973827928,12.27372301,0
60.0,-0.258,9.89,-5.97,11.6,0
125.8493413,0.9504368377,0.5507413486,3.69307217,3.852976547,0
104.4174776,-6.280032402,1.226465031,1.304888619,6.530371946,0
511.2579921,3.047358883,2.416329855,2.700249451,4.73459536,0
55.66855525,2.285757875,-1.522699156,0.6033689207,2.812002105,0
12.1,-2.32,6.9,-14.4,16.1,0
279.0636142,-6.456320107,1.499239542,0.3927203456,6.63973025,0
542.3091302,-0.1245796072,-0.09439452589,0.01222082689,0.1567793152,0
34.3,-9.09,-10.3,1.74,13.8,0
280.6597128,-2.194785724,-0.2281393513,-3.304909437,3.973859374,0
56.7,-0.492,-9.35,-5.44,10.8,0
367.4020382,-4.205386494,1.062064716,-0.2060472549,4.34231649,0
277.3169411,2.132542698,0.360271807,3.772238792,4.348254781,0
51.4,-0.117,2.16,3.77,4.35,0
302.4730932,-4.155292813,0.2962409949,-0.5240627693,4.198673466,0
111.3238498,4.022521842,0.5671354795,4.962167058,6.412910925,0
49.7,-1.22,-8.69,4.03,9.66,0
373.6661255,6.743025463,-3.200433726,-6.241654787,9.729821319,0
104.0311223,-0.4926012773,-0.1125121236,-2.225020215,2.281672622,0
148.4929577,0.5959712793,3.483857625,0.9512791291,3.660242846,0
233.037939,-4.343744481,1.371328337,1.680130175,4.855048396,0
488.2687061,-4.66788605,0.7652780297,1.52298143,4.969334269,0
188.9700534,-0.2621061194,-1.523299811,1.046001391,1.866349604,0
354.5426172,0.8129582727,1.507044259,3.826557379,4.192210029,0
89.87208483,2.931789835,-3.631453042,-0.7963761538,4.734665544,0
528.8967496,4.52785576,-1.150239266,-1.875851101,5.034217467,0
287.8471828,-3.614793155,-0.09140557542,-3.131989143,4.783768444,0
475.8003525,-0.2607068807,1.480972548,1.841851296,2.37774346,0
26.25159775,-0.2521562049,-0.2886852229,0.4057043803,0.5581379343,0
231.6225389,0.1606382167,-1.950387751,-1.819405443,2.672087795,0
5.04,0.735,-1.92,-2.32,3.1,0
19.45682871,-0.2158593214,1.139333771,-4.227495986,4.383651332,0
241.3396139,0.2193863618,-0.7464730918,0.9100729233,1.197324174,0
156.3964517,-0.9879236296,4.381838506,1.222248166,4.655146869,0
154.3180211,-3.927606329,-0.2922553866,0.1982999866,3.943453762,0
46.64192175,0.08925116882,-0.5503522164,-0.4896990484,0.7420636706,0
354.4221542,2.684248545,-0.6991314027,-4.147317211,4.989410288,0
157.2489868,0.6157039145,2.543227737,1.206894547,2.88161293,0
348.6801028,-1.616724722,-0.1488809279,5.079125404,5.332305246,0
26.3,3.4,-1.91,9.28,10.1,0
16.0,-0.143,-0.787,-3.07,3.17,0
24.81734387,-0.4941470253,-1.079605486,0.8274979591,1.447232587,0
188.8696714,4.038532687,-3.539038383,-3.877847108,6.623612092,0
49.0,3.26,3.88,-7.32,8.9,0
34.4,5.83,1.34,3.93,7.16,0
284.283562,2.038696641,1.437174418,-3.076400834,3.960555061,0
103.7502922,1.63652281,-0.3774541426,4.672119142,4.964813774,0
13.0,1.75,1.63,-4.95,5.5,0
116.9453237,3.828854458,-2.781717829,-2.34241564,5.280624165,0
353.5789157,4.160868718,0.9861367205,4.234349508,6.017890816,0
433.2959551,-7.865434175,1.682800744,0.79991752,8.08311457,0
17.3,3.5,0.869,2.27,4.27,0
474.4752176,-1.28996594,0.1855078867,-2.705861024,3.00334966,0
325.882686,-2.216345578,-0.513410458,-1.318042807,2.629261277,0
44.00413188,-0.1862956894,0.4298896337,0.5317662567,0.7087217598,0
223.3409496,1.381262611,-4.388532106,0.08282990277,4.601517276,0
555.1091336,-0.3325814402,0.3729034008,0.9538983893,1.076842374,0
33.7,-2.76,-31.9,9.65,33.5,0
482.2252618,-0.5536313349,1.392749027,-1.086949443,1.851409355,0
29.22355887,0.7053776908,1.36992369,-1.68998478,2.286984293,0
47.0,6.26,-4.28,-5.06,9.11,0
44.8,5.15,-5.36,5.96,9.53,0
446.1857598,3.051288797,-1.220169261,-3.455405073,4.768542814,0
161.0502919,0.6139668529,-1.600721478,-1.327145899,2.168082282,0
183.7578729,-0.1972356471,-0.05085674286,0.1464429313,0.2508661813,0
86.07768721,-1.154115239,1.777200971,0.5136545062,2.180427992,0
15.9,1.99,-0.345,-0.143,2.02,0
559.8476515,-6.480922852,-5.249086422,-4.119645263,9.301975401,0
162.1980814,2.8303576,2.112329605,-2.651244521,4.416102129,0
22.52838283,3.098514419,-1.481975784,-3.536196052,4.929678118,0
51.86866533,3.282798191,-1.944313956,-6.071427721,7.170729063,0
2.91,3.01,2.01,0.677,3.68,0
215.2300295,3.265643045,-3.660716017,-1.143820193,5.037220552,0
204.2381645,2.326400117,-2.504778201,1.269719955,3.646675212,0
17.1381045,2.245162411,2.435274103,0.2578516853,3.322318723,0
453.2430379,1.211950634,-1.576138175,-2.573803997,3.25230732,0
540.3715623,-0.1658808303,-0.2764753595,-0.3752001871,0.4947021879,0
499.3918805,-3.16813897,-0.06674070418,-0.04847517192,3.16921263,0
45.4,-22.6,-28.4,32.2,48.5,0
182.213274,-2.264744151,-1.457072346,-1.813815066,3.246852474,0
229.7654543,1.869168903,1.617330202,4.31586174,4.973551239,0
83.47045112,-0.4498865996,-1.117899925,3.273525091,3.488275321,0
63.4615245,3.061101594,-2.905261602,-5.417867471,6.867617919,0
399.3148589,-4.619320246,0.1960932474,4.163797004,6.222039664,0
523.5759813,-3.772208387,3.081793721,0.2741079681,4.878744083,0
78.43562317,0.9083520877,-1.615618429,3.820135674,4.246029086,0
32.3998155,2.642569592,-0.01760552779,0.2609612346,2.655482022,0
536.2454465,-2.376401412,0.6047567573,5.583926641,6.098626988,0
47.8,-0.854,-1.81,0.158,2.01,0
515.5848315,-0.107630868,0.03922809273,0.14633008,0.1858379383,0
27.3,0.999,-0.054,1.95,2.19,0
49.0,0.511,1.0,2.0,2.29,0
234.6842197,-4.593715289,-0.1893109158,-1.50742272,4.838427641,0
38.6,3.95,-12.6,-15.5,20.4,0
24.8,-1.13,8.81,-4.25,9.84,0
546.9572877,-0.2053337485,0.2358670315,0.08994764529,0.3254009584,0
104.5526648,0.9380464415,0.7293851888,0.2459666348,1.213438695,0
9.780412333,3.047778713,2.883377228,-2.415754927,4.841352207,0
74.97543312,-2.105186792,-0.7087679064,3.725228348,4.337221417,0
464.2355683,-6.423604935,-0.2929022348,-1.811295647,6.68051525,0
42.9,0.363,-0.0245,-0.332,0.492,0
161.3210969,1.567011549,0.7756156147,-0.9572320332,1.993338391,0
200.3935306,3.336286765,-2.049271185,-4.024297056,5.614738513,0
403.4608411,-5.277201004,-1.024690629,0.2152741612,5.380072889,0
480.2375527,1.61325323,0.7044541231,-3.164755771,3.621397615,0
23.01198679,-1.461011177,-0.1981320253,-1.296340574,1.963239375,0
40.7,-9.38,-8.58,0.763,12.7,0
18.6,-6.18,-7.07,-0.389,9.4,0
246.3386893,-1.655933812,-1.00626693,-2.367341444,3.059247527,0
387.7302365,1.419023929,0.9646924956,-1.501656927,2.280182898,0
479.0629986,-3.952480969,0.4350997952,-0.2822228801,3.986360169,0
49.27893196,5.018147716,-0.8764290677,-2.877645203,5.850707335,0
514.5508056,-2.629716827,0.583996876,-0.3973346758,2.722928164,0
329.0046512,-0.4786595052,-0.3267326166,-0.3252468391,0.6645710128,0
275.1586957,0.7296822274,0.7441539399,-4.335687602,4.459191432,0
52.1,1.23,-0.638,-2.1,2.52,0
484.0724264,-0.8999016917,2.730122291,2.67990231,3.930046713,0
184.9648087,-6.60940606,1.515063277,0.7643249336,6.823771523,0
10.4646725,-0.01530318663,0.3267336398,0.05642095327,0.3319222543,0
343.5905744,-1.550337775,-1.440803784,4.456596327,4.933630873,0
56.8,1.93,2.12,-0.476,2.9,0
0.7958177916,-1.707217986,-1.745385979,0.2555239087,2.45484377,0
437.5524008,-1.021408002,2.281987298,-3.835005144,4.577991349,0
58.14226662,-0.9150529969,-0.8629689234,-0.1022192699,1.261937451,0
168.1005842,4.222066846,-1.285986032,-1.042279712,4.53497029,0
169.7568968,1.628661228,-3.02475267,4.237556705,5.455140048,0
156.9581218,-0.6986528081,0.3776219577,0.1767171827,0.8135988273,0
416.9528725,0.53844787,-0.5354435706,1.616695486,1.786149552,0
559.0545519,-1.945029509,1.434967825,1.839842777,3.037646111,0
65.056222,0.9298379009,0.205322054,2.603010839,2.771718077,0
62.5,-0.499,0.787,1.19,1.51,0
58.02550375,-0.8671689785,1.183228161,-0.872986958,1.707078541,0
386.565753,-5.756900729,1.150651349,0.3436396945,5.880815655,0
185.1555347,5.409083199,-1.652298598,-0.3786843967,5.668480712,0
47.97585942,1.361603541,-0.3492211542,-0.3207004827,1.441793472,0
34.75434862,0.7028639728,-0.3521891277,-0.3119214731,0.8457836315,0
74.06274537,4.298742555,0.290862726,-0.2819024527,4.317783884,0
8.09,3.74,-2.18,-6.34,7.68,0
325.993109,3.334768828,-1.263403208,-0.6135307968,3.618465261,0
218.3017362,-0.7754024836,1.129634702,2.429468987,2.789201163,0
15.1,-3.43,6.05,4.24,8.15,0
88.67754975,-0.8426801815,-0.1653013712,-1.831932079,2.023217629,0
147.2109063,-1.279881247,-0.9510654864,-2.389132701,2.872381699,0
252.0906364,1.938259603,0.3543535477,-2.862467,3.475073244,0
546.1842687,-0.2255668688,0.1349591459,-0.07037365235,0.2721154797,0
58.3,4.37,-0.189,-1.02,4.5,0
494.9546538,0.8643213844,-1.282758662,-3.682264761,3.993944793,0
412.5759905,-5.56955477,-0.03755476579,-1.007604334,5.660089857,0
120.4998794,-0.6597046508,0.3207706493,2.168048161,2.288785019,0
443.8366816,-2.998768521,-0.4355427217,4.151688005,5.139924454,0
9.95,-5.66,-3.97,17.0,18.3,0
27.70591017,0.2034453902,1.07660908,-0.6758457434,1.287340129,0
395.9117462,0.4841436088,0.7178919017,-2.886328318,3.013412513,0
74.84520171,-5.803774348,0.02281554312,-1.995216746,6.137198636,0
54.2,-14.0,-28.1,35.1,47.1,0
72.43796112,-3.274290784,-8.236647,11.84267342,14.79230367,0
53.8,-1.17,-0.365,-0.67,1.39,0
10.47301975,-1.293815746,-2.126580585,1.274033446,2.796330701,0
33.5,-2.44,2.27,2.64,4.25,0
202.9733492,3.189143922,-0.8018896396,-1.229366566,3.510699091,0
529.1276516,-2.930548471,-0.869034825,7.18494048,7.808117928,0
103.2329583,1.242831534,0.6418229882,2.166540164,2.578849211,0
104.0411523,-0.116480035,-0.8987094444,-2.558086389,2.713862973,0
72.14501537,2.859300733,2.317851487,4.974806399,6.188435579,0
15.2,3.14,3.96,-3.38,6.08,0
201.2768927,-4.23982484,0.4894729073,-2.118421234,4.764809223,0
43.34663583,-3.121564143,1.165761285,-0.2005156428,3.338168449,0
90.25042637,2.72048491,0.4425968027,-4.374788226,5.170657801,0
406.7033427,1.932534594,-0.6371933091,-1.798902327,2.716018198,0
432.7538611,-6.398236206,0.424205263,2.808355113,7.0003025,0
418.6795335,-5.2822185,-0.1373436405,-0.7906838894,5.342834133,0
247.5332476,4.240366877,-0.332606364,-1.693460511,4.57811607,0
18.2,-0.115,1.84,2.75,3.3,0
161.8467414,2.388801017,-1.229959912,0.07193595529,2.687814441,0
360.1341002,-1.226951666,-1.486380053,1.543205926,2.469052568,0
224.5355045,-0.3522000182,4.570772569,-1.72926959,4.899630603,0
169.9576618,-2.095688283,0.02923870951,-2.485884093,3.251520261,0
62.6,1.74,-0.387,-2.11,2.76,0
279.8666823,3.197105491,-0.7563883616,0.6929686566,3.357649838,0
93.89738683,-4.05353255,8.783653439,-4.873078003,10.83192426,0
143.0668408,3.073455006,-6.332051572,3.241545207,7.749104343,0
148.3954264,2.478845215,-1.069731585,-0.2548959909,2.711820649,0
167.9098572,0.5140912932,-1.680212182,-1.975886436,2.644150155,0
40.7,-0.725,1.41,2.12,2.65,0
362.6638232,2.262152081,-1.71388425,2.11214761,3.537781619,0
21.85585258,-2.709381632,0.8990987228,2.071578459,3.527118463,0
10.06147033,0.3400617832,-0.17453354,0.3129646164,0.4940150039,0
5.31,-0.398,5.06,6.04,7.88,0
530.0211401,3.547920304,-0.9682803471,-0.8027041568,3.764258131,0
207.4905475,-4.354763559,1.611956318,3.025701966,5.542313705,0
288.7305587,-2.030937386,-0.4464547956,7.608275385,7.88732419,0
495.4164458,-3.528513395,-0.8031106845,0.5485968822,3.660102743,0
21.66513558,-0.601717667,1.74285428,2.859227058,3.402173506,0
28.8,-3.94,5.33,6.8,9.5,0
150.488889,0.9361099899,-5.075634617,-1.509224832,5.377371874,0
240.7473532,-0.5688428664,1.776551346,-2.060051842,2.77912405,0
441.0659758,1.705899439,-0.4248508687,-2.941726009,3.427002052,0
430.7461056,-5.402547181,1.194305784,-0.8263185757,5.594343995,0
8.81,2.4,2.64,0.276,3.57,0
378.4946972,-6.301083548,1.724019668,0.5499977289,6.555790967,0
552.5692105,-0.07826439679,-0.04789775938,0.02526691519,0.09517314832,0
52.4,0.652,2.52,2.57,3.66,0
507.7543682,6.435852513,-1.496492081,1.59510932,6.797356829,0
7.74,-1.59,-3.88,4.79,6.36,0
527.5414583,2.310333138,0.3082182853,1.373701576,2.705493252,0
18.2,2.84,7.54,1.86,8.27,0
554.6774476,0.982514078,-1.508035508,-0.07150867,1.801282459,0
92.913645,-7.626718088,7.063158181,-6.098730125,12.05195177,0
8.75,0.735,0.758,0.716,1.28,0
55.0,-4.86,1.37,-0.722,5.1,0
33.9,1.35,-10.5,4.16,11.3,0
40.4,5.14,4.85,-7.06,9.99,0
1.850534083,1.497333642,0.4778559516,2.09472817,2.61882425,0
53.62252117,0.1076409544,-0.01079045177,0.6938884968,0.7022707846,0
50.3,-5.32,8.48,5.33,11.3,0
289.4332448,0.04598425806,0.3706092457,-0.01927198425,0.3739480905,0
176.7435107,0.8265179658,0.396992906,-1.190126048,1.502376559,0
478.5008186,-4.507940728,-1.044919072,0.4408443922,4.648411476,0
5.91,-3.27,4.42,5.18,7.56,0
27.1,-3.57,-3.43,-0.0333,4.95,0
55.91388058,5.727138986,-0.9253315249,-1.178988418,5.919997727,0
25.6,-4.77,-8.38,1.68,9.79,0
81.33974246,0.9776719987,0.769493726,6.3078938,6.429423561,0
76.92304546,-4.82351788,-0.3516560809,-1.377051592,5.028544305,0
17.9,0.109,-0.995,-0.63,1.18,0
431.840332,-2.90642169,-0.6918910879,-2.390991384,3.826596414,0
189.77311,-0.1746656871,-0.9251824209,-2.201350978,2.394246592,0
205.0111068,1.635075039,0.4730143109,-3.036619887,3.481131032,0
6.211991375,-0.9433669692,-0.8951923442,-0.6116216809,1.437147053,0
390.0391267,0.7970596933,-1.112496074,2.96764847,3.268009962,0
396.0623262,2.179336796,1.546065507,3.983405138,4.796597118,0
550.0694456,-0.0599275285,-0.007246454358,-0.1161847597,0.1309302034,0
228.4002461,-3.848676519,0.3395152147,-2.478297038,4.590156614,0
215.3504881,-1.037225305,-0.5212629032,0.8529848027,1.440532687,0
2.55,-1.0,-1.94,-0.264,2.2,0
113.7298238,-3.479973612,3.374801205,7.861677339,9.236096042,0
363.7178745,2.94082086,-2.119067059,0.9261245535,3.741200238,0
41.1,-0.72,-0.702,-2.58,2.77,0
9.68,-0.851,-1.2,-0.803,1.67,0
42.62004287,0.2998990861,0.8646324563,0.5257950801,1.055456874,0
15.87334571,1.111336717,0.3657600036,0.03060841978,1.170378808,0
3.81,-0.185,-4.18,2.82,5.05,0
158.1928043,-1.135357956,2.153025787,-3.917367854,4.611976651,0
81.16909746,1.198490928,-1.384446712,-3.26042382,3.739443366,0
491.5514445,-0.0795934689,0.2160208507,-2.059581141,2.072407925,0
177.9706412,2.233467395,-0.4396363574,-0.9568393926,2.469250565,0
493.7399384,-2.217482861,-1.192128135,4.650128056,5.287919313,0
107.3687468,-4.874126701,0.01565314248,4.530748085,6.654700168,0
5.835556583,-1.469331619,0.5419737045,-0.6800158314,1.707364177,0
54.42829125,4.124165161,-2.489067902,-4.571102352,6.640720895,0
68.82732879,0.04254784942,-1.536519635,-1.964118329,2.494085748,0
58.06562175,-1.286728629,-0.3893492796,-1.173085946,1.784206844,0
260.643271,-5.809192379,-0.4822141738,0.2085169727,5.832900302,0
538.6147011,0.7895501143,-0.6066607569,2.001561267,2.235547844,0
20.0,1.14,5.51,-3.3,6.53,0
21.51456858,5.445961003,-2.767139844,-3.294427133,6.940374939,0
229.5446113,1.576729183,-0.3185802823,-3.193182887,3.575469935,0
111.5934981,1.630688166,0.341880852,-2.348508439,2.879499661,0
288.1684098,1.617787746,1.265010315,2.07827469,2.921765558,0
532.8923505,3.252186263,-2.105926319,-4.183837751,5.702292475,0
36.13955321,-2.779600845,0.9298920608,-0.4358222187,2.96324503,0
154.5990941,3.657912862,-0.4729581045,-3.034441799,4.776175552,0
13.2,1.92,-14.6,-2.5,14.9,0
98.63517212,-0.801825101,0.7522302604,1.298339006,1.701310681,0
46.36799258,0.2736567092,1.647472744,2.161082958,2.731178132,0
434.3600669,-1.140226933,0.9593319145,-0.03682854161,1.490567517,0
60.1,-11.5,-2.96,3.52,12.4,0
1.31,9.09,1.94,-5.71,10.9,0
34.99525362,0.4057727927,-3.625002101,1.402152227,3.907853971,0
528.9670246,-0.173233704,-0.2360826476,-4.63443296,4.6436746,0
116.508052,-1.498662422,2.359963719,6.158262382,6.763106784,0
19.49697971,3.928774602,-0.1759405263,-3.667268407,5.377274637,0
457.931171,-2.507624041,2.568026071,-2.605520464,4.435275991,0
287.3151486,-4.851493299,0.686316791,-0.1626297784,4.902495937,0
18.683921,-6.04821486,2.588732523,-2.189263029,6.933636252,0
442.8629201,-6.320618511,0.6139681685,5.142106349,8.171195321,0
178.2693206,-4.300830011,-1.011985799,-2.84873306,5.257046137,0
51.5,-0.915,11.1,11.1,15.7,0
9.338749333,2.737572228,-0.539640702,2.400656832,3.680851398,0
157.590001,0.6734514548,1.673496509,-1.050478897,2.087494512,0
210.2912129,-1.752229267,0.5379220591,0.5357879716,1.909642976,0
53.5,0.272,1.25,0.437,1.35,0
366.5487572,6.906361585,-1.328984117,-1.675603845,7.229915447,0
78.58606617,-1.060147999,0.8201222813,3.797087705,4.026709497,0
427.5939332,-1.676206108,-1.633098534,4.655357805,5.210473495,0
104.8134357,2.228921331,-2.037874523,-1.396223443,3.327230496,0
246.7301833,-5.063257815,0.3673608251,-0.2218152952,5.081410799,0
174.891476,1.864088842,0.8066157979,1.395136007,2.464114594,0
227.6272975,2.448344969,-0.01096645296,0.4634244387,2.4918418,0
78.32529787,-0.760852126,-0.1451349092,3.101359674,3.196621955,0
365.0228912,2.330363944,-0.8875669903,-1.932718781,3.154960089,0
521.3874441,2.23659624,0.7451656544,-0.5891479806,2.429965007,0
107.9208558,-5.705192631,1.171923958,1.566703547,6.03135049,0
318.8758455,4.017596147,0.675167174,3.476594213,5.355710675,0
40.6943535,1.698398046,-0.8454913035,-0.5318434399,1.970347409,0
13.4,-0.546,-0.921,1.01,1.47,0
41.7,4.8,-9.78,1.88,11.1,0
203.4049925,-0.2333471739,-2.232534033,-2.381541699,3.272674743,0
243.266967,0.7365152836,-1.851131704,-2.01457176,2.833309501,0
33.3,2.98,-5.13,4.38,7.37,0
238.7898846,-1.091196275,-2.146112186,5.001714701,5.551005024,0
156.6271378,1.524111112,0.3638336384,0.5621627149,1.66472716,0
58.1,-1.64,0.755,-1.37,2.27,0
102.4901241,-2.930127472,0.3692947917,-0.8729300939,3.079615657,0
263.9960677,1.113868854,0.02961512402,-3.091953843,3.286603025,0
300.344958,-3.965247195,-0.7094026217,2.620418585,4.805520883,0
101.3357215,-6.194206386,-0.741818562,4.267307339,7.558333114,0
42.2,0.69,-0.876,-0.197,1.13,0
16.44246737,0.1359905217,1.115204943,-0.1001516944,1.127921029,0
214.8887285,1.182587671,0.599511074,1.352552782,1.8940238,0
148.5259244,3.123153416,2.680886104,4.339054429,5.980688163,0
168.0403552,2.095699393,-2.391623907,-4.394058017,5.423980707,0
195.7960338,2.477210333,0.1786923721,3.94962285,4.665621358,0
321.4657652,2.521684256,-1.072527431,-1.196761322,2.990224781,0
436.0365441,4.332466956,-0.8010563383,-4.507154278,6.302888295,0
33.931254,-0.678358292,0.5493390401,0.8245193875,1.200739594,0
134.0701337,0.6113603103,2.409080915,0.9050846636,2.645110685,0
2.681452667,-0.02911014386,0.4211617872,-0.7991255146,0.9037843989,0
10.4,0.4,-1.52,0.662,1.71,0
333.782969,0.9342061365,-0.4348721192,0.5233813494,1.155760746,0
90.01974638,-0.5893721117,0.734922502,2.575564886,2.742445086,0
241.1187702,0.7173381704,-2.575091554,-2.215211657,3.471719062,0
447.8521992,2.626875665,-1.991479352,1.320196337,3.550969464,0
181.130213,2.311333011,0.6190223555,4.036112525,4.692084108,0
448.2637902,3.649179461,0.5454228674,-1.636947318,4.036532344,0
184.4127077,-5.166174658,0.6298303489,2.193732495,5.647876514,0
312.8829045,-4.227177898,-0.3629042235,-0.1624988008,4.245837764,0
323.9954552,3.073814026,1.719661884,-7.081328988,7.908905733,0
443.2243161,0.3896350622,-1.403926418,0.7090906727,1.620380959,0
17.8,-3.93,0.16,0.0705,3.93,0
537.3196418,0.3468047923,-1.172558235,3.954787695,4.139506262,0
111.6937951,1.874489723,-1.193808478,0.5950629508,2.300649977,0
111.8342101,5.86507188,-4.790528474,-6.554819378,10.01568212,0
141.6526412,-0.9584437224,0.06760784626,0.7630955565,1.22698819,0
39.0003035,5.432911772,-3.647082065,-3.250830001,7.306547311,0
309.3092322,-5.222698522,1.430547329,-0.5140002228,5.43941557,0
111.3640028,1.696374325,-0.6609569782,6.551924422,6.800166439,0
214.7481935,-0.7110027122,0.2658462909,-0.7047754276,1.035812488,0
6.42,0.408,4.36,1.37,4.58,0
277.0459061,-2.457866575,0.297995452,-0.1916606194,2.483272675,0
19.4,-0.0671,-1.12,0.591,1.26,0
19.0,-0.109,7.53,1.93,7.77,0
50.8,-4.16,-6.29,-0.6,7.56,0
13.6,5.11,-5.85,-2.68,8.21,0
37.6,-4.6,7.72,6.64,11.2,0
239.5327191,0.8483029372,0.5956103964,-1.027661161,1.459608536,0
27.50531517,-0.3896930958,0.1339670927,0.5188123351,0.6625512282,0
226.7238511,0.1990170014,1.806283268,4.016925471,4.408849879,0
532.9023905,4.756460842,-2.294788899,-2.642556143,5.905343242,0
30.04665387,3.185085955,1.69609819,0.8879236704,3.716171424,0
47.2,1.06,16.7,-13.3,21.4,0
337.1257859,-4.061161412,1.211816002,0.4896907161,4.26630133,0
36.9,0.796,1.14,-2.63,2.98,0
427.0719182,3.417920913,2.206021588,3.992227417,5.699701252,0
53.8,-0.578,-0.0806,0.114,0.595,0
228.8118161,-5.155997579,2.211291098,0.5542724821,5.637493888,0
52.3,-2.78,9.31,2.67,10.1,0
24.1,0.911,9.59,-5.86,11.3,0
12.79174896,3.482686427,4.732431417,0.4142746443,5.890384991,0
7.736540042,-0.5075286707,0.6254915687,0.6273115146,1.020952884,0
162.7301107,1.271805072,-2.132833159,-2.008712119,3.193961459,0
8.679350625,-0.06116041392,-0.03442928284,-0.7714342707,0.7746204269,0
37.2,-0.704,-2.13,0.313,2.26,0
85.74715613,-1.704867405,4.424554755,1.338575013,4.926970744,0
233.047978,-5.046482738,1.379700819,1.553726821,5.457529607,0
23.0,-1.98,4.73,4.35,6.72,0
134.2213217,1.872007726,0.3692225786,3.853392883,4.299927319,0
483.6206734,-4.464074332,-0.6385622884,0.7669629049,4.57427082,0
429.3707947,2.485749607,0.007854126245,-2.43842926,3.482089897,0
144.5011034,1.38386316,0.4388499069,-0.757767866,1.63764423,0
492.6155748,-0.01830587804,1.880882776,5.054293449,5.392952567,0
58.9,0.615,-1.81,0.67,2.02,0
517.6528862,2.703895774,1.150325659,-2.750800969,4.025072354,0
0.584,0.871,-6.19,-5.12,8.08,0
275.771036,0.4236635184,-0.4790322652,2.126566259,2.220641066,0
53.5,-2.1,-1.11,-1.32,2.72,0
31.6,-1.58,5.58,6.46,8.68,0
221.1927579,-0.5899130157,1.032325339,-0.6132431138,1.337819154,0
89.82189383,4.539197312,-0.6436264157,-1.992528781,4.998873687,0
93.42980362,2.604337865,-1.253871077,-3.500533006,4.539658547,0
30.0,0.867,5.49,5.71,7.97,0
359.2707831,-6.09231573,0.4692258999,0.09693163276,6.111127526,0
109.5374126,-1.279768395,1.534572512,2.227317878,2.992267513,0
504.9434439,-5.862896715,0.02292240098,-0.7827164733,5.914958023,0
16.90723533,0.8419043291,-1.658771173,-0.005373883545,1.860202565,0
529.1577686,-4.765194828,0.5967687298,5.564280581,7.350131499,0
502.7147854,-1.48919461,1.619279079,1.271192284,2.540806003,0
59.85088462,-0.008785441518,-0.04010195911,-1.124542288,1.125291389,0
36.70166621,-5.147571157,0.3082168235,1.165834229,5.286932558,0
161.4013359,2.62847137,-0.5178563154,-0.3995449233,2.708629368,0
48.5,1.76,3.72,3.9,5.67,0
62.7,5.63,-5.25,-1.47,7.84,0
171.7344317,0.6123555064,1.551591564,2.254129701,2.804196205,0
37.1,0.0954,-1.23,-2.75,3.02,0
9.73,3.4,-0.696,-4.43,5.63,0
35.7,2.41,-20.7,-2.58,21.0,0
550.0393276,-0.0327619493,0.01771399364,-0.09756371677,0.1044308849,0
8.13,-2.2,-16.5,-7.03,18.1,0
47.77526742,-0.3542394539,0.7495113051,0.6130402154,1.03105339,0
37.6,-6.69,-16.0,29.4,34.1,0
6.889523833,0.2619757265,-2.256350473,-0.3008333981,2.291342286,0
329.8278071,1.992968491,3.030703674,5.569327898,6.646390103,0
485.8292417,1.081294016,-1.434836847,-3.847477255,4.246296593,0
546.3147777,-0.1928107667,0.09927110374,0.306938476,0.3758217288,0
123.9200188,0.6009209473,-1.381571051,5.308225746,5.517889553,0
91.45397537,0.8222599503,-1.791208561,2.02120031,2.82308169,0
63.10046113,1.359146687,0.6269191664,-0.8367400682,1.714771501,0
14.7,2.29,2.47,0.924,3.49,0
118.320578,-3.783539121,0.6972103,-0.2689568634,3.856631727,0
124.9530819,0.1908670426,0.4870938215,-0.6011481482,0.7969126144,0
552.7097601,-0.1189154094,0.1337917493,0.0003555107117,0.1790006513,0
222.3070065,-0.4719284829,-0.5299547893,-2.072787078,2.190893617,0
23.7,4.67,1.62,-4.48,6.68,0
35.9,4.08,3.99,-3.13,6.51,0
292.4748725,-5.486034311,0.0690426068,0.1445900948,5.488373679,0
116.457904,-5.823983495,-1.03230078,7.414227347,9.484471299,0
359.8128662,-4.991006695,0.1715977992,-0.6063668612,5.030633599,0
309.6405001,4.97861586,0.22211248,4.154340302,6.48802691,0
60.1,-3.65,-1.47,-2.13,4.47,0
61.1,1.16,1.87,3.37,4.02,0
417.2038405,-0.5226522017,0.4986338863,-0.5030834712,0.8802806686,0
187.233445,4.160027304,-1.190931063,-2.368150406,4.932776126,0
430.0534305,1.066701704,-0.3299183258,0.8223904163,1.386731634,0
503.0259944,0.1143580896,0.1554097096,-0.3303298236,0.3825542352,0
167.4794162,-0.5780729887,1.398898398,-0.5784752771,1.620406972,0
57.11841333,-0.08841457844,0.3021458057,3.045416438,3.061645065,0
131.9526557,2.642148008,-1.318969299,-5.556108513,6.292135402,0
315.1817015,1.901983477,-1.001204045,-1.164905691,2.444781372,0
291.3405359,-1.954901948,1.873726076,0.932877576,2.864044624,0
162.6196897,-4.406685079,0.9382328215,-1.664862656,4.803219949,0
521.4878351,2.124736665,4.014400936,2.106031569,5.006524717,0
514.2295546,1.590067266,-1.864934495,-1.038302436,2.661647334,0
288.4996767,3.385557743,-2.060492576,-1.200098401,4.140998317,0
543.8049735,0.07445844412,-0.03316862315,-0.03909981944,0.09040471969,0
508.2663582,0.137787298,6.295179614,3.37703338,7.145112047,0
505.78672,3.486336259,-3.555172021,8.049041424,9.464716396,0
62.9,-0.842,-0.135,-2.44,2.58,0
10.6,4.61,-5.02,-2.38,7.22,0
326.4849935,0.8845732158,-1.036258615,-1.460438588,1.997293809,0
146.3967304,1.360297273,-1.645923963,-2.811372861,3.530338755,0
157.9820003,-5.817718204,0.5574174801,0.9187564771,5.916136646,0
516.7694453,-3.190059012,1.609111648,0.07420964509,3.573684914,0
417.6154282,-5.253016335,-0.3696771996,-0.6303825454,5.303604812,0
47.17100733,2.425325065,-0.5155178677,-2.68900467,3.657691411,0
117.1360527,0.5465930414,2.198007832,1.745409075,2.859450161,0
355.1650082,3.566296933,2.879562505,3.933341278,6.03999401,0
148.6835237,-0.4772852999,0.9926104653,0.5151622108,1.215923064,0
69.32438383,2.447977179,0.1293472807,-0.6180653125,2.528107537,0
21.0,-0.819,-1.1,-3.74,3.98,0
81.64088246,2.982047823,0.6128421409,-1.965994701,3.623992256,0
120.0084237,-0.1948787441,-0.7925731248,-0.5248601103,0.9703751946,0
55.6,-2.04,-2.82,-2.12,4.08,0
110.6412427,1.739837848,-1.76955676,-1.134737713,2.728735337,0
349.1719918,2.080359807,3.211812993,4.902444767,6.219132119,0
103.5396693,4.376986486,-4.536790305,-6.134617411,8.796249642,0
306.4583292,1.817106464,-0.4020989871,1.452107329,2.360545529,0
32.3,2.58,-4.3,11.0,12.1,0
44.6,0.00308,1.43,-0.115,1.43,0
51.98911833,2.826621814,-0.6824131899,4.149568389,5.066990868,0
198.1851263,-3.349195079,-0.1200567859,-1.102508299,3.528037111,0
6.66,-0.769,-1.03,-5.26,5.41,0
291.3806899,-4.607260364,0.9961423297,0.113463027,4.715084459,0
89.21738238,-1.013088292,-0.3819974291,-0.5350605414,1.207708452,0
107.1980948,0.9510431939,1.373854188,-3.081665082,3.50551254,0
395.6306632,0.9604537028,1.007187574,3.827837627,4.072988954,0
26.92359037,-0.1632279485,1.640905006,0.166708796,1.657408949,0
169.1042515,2.62398334,-2.816664591,1.730903302,4.220771757,0
403.6415362,4.093463185,-1.143918865,-2.614438637,4.990018097,0
86.69996304,1.02739482,-1.676163424,-5.467845962,5.810542436,0
121.793714,-0.02609372975,1.154945983,-1.18034234,1.651601994,0
220.9518389,3.958408291,-1.197426735,2.125799689,4.649930247,0
543.5339155,-0.09890155971,0.03497628987,0.02369818032,0.1075474924,0
412.8871905,1.016378812,-0.09797528766,0.8853187358,1.351448967,0
44.3,-6.54,0.0365,-2.08,6.86,0
251.3277254,-4.550035418,-0.04710297659,4.414722077,6.339937856,0
128.5697335,-3.159693836,2.016477368,2.962829779,4.777887233,0
64.2,0.676,2.01,0.853,2.29,0
62.4,-1.57,2.34,0.777,2.93,0
199.6105511,-2.78993229,3.22116883,2.14427923,4.770490984,0
22.1,0.93,8.56,9.8,13.0,0
315.8341993,2.613988987,0.7282210082,2.368430488,3.601764461,0
35.32649871,1.337044212,2.340431388,-2.710749881,3.822757018,0
113.0203298,-1.088880193,1.923409868,1.6640439,2.76662388,0
29.7,-3.59,7.35,6.52,10.5,0
139.9174883,-0.2404111221,-5.033946893,-2.714152375,5.724075641,0
56.74701533,-6.158357692,0.6747672245,-1.78782887,6.448023909,0
334.154393,0.1970254397,0.05732507899,-4.452285175,4.457011159,0
558.2413737,4.596301512,2.49959786,0.6817584479,5.276245979,0
51.84858933,5.575943438,-1.222482347,-6.156983596,8.396073803,0
156.7675547,-4.757932294,0.7691018164,-0.1782640636,4.822988222,0
55.247314,-0.03870659418,-0.3978229183,-0.125247944,0.4188655181,0
123.12767,-0.08932155468,0.6739401358,0.4246914589,0.8015837337,0
157.1386587,1.663163748,1.890056326,1.585331022,2.975180838,0
546.4051307,-0.080300982,-0.08475159019,-0.4393052588,0.4545549364,0
23.30284979,-0.9489126147,1.163094516,0.07461281061,1.502927502,0
366.3781012,-5.6478332,1.148255306,0.8243762769,5.822036272,0
8.53,-1.43,-2.53,-0.567,2.97,0
34.85472562,2.195387987,-3.091277612,-0.9197448027,3.901494098,0
348.0275983,6.207131072,-0.7435105269,-1.684503307,6.474475688,0
220.0684718,-1.251326369,-1.545334897,2.331053916,3.063933743,0
37.8,-2.49,-2.18,-5.49,6.41,0
32.31518033,0.3734078693,-0.2358525597,-1.257712259,1.333004124,0
2.53,0.607,-0.932,0.475,1.21,0
168.4418855,0.6113392603,0.394821104,-1.594563337,1.752783965,0
37.2,-0.395,-1.47,3.33,3.66,0
48.7,-0.03,-7.2,2.58,7.64,0
400.900971,-5.047211886,1.984160684,1.004432293,5.515444286,0
242.704822,-0.0533903414,0.6386463422,-1.011905107,1.197777786,0
175.27261,1.185634509,-1.606427776,2.165368967,2.945362822,0
2.731602667,0.5109066803,0.5832077211,-0.1867167985,0.7975086487,0
53.37178217,-0.1105363494,-1.441554421,-2.691076339,3.05486322,0
224.0938206,-1.291342959,-0.7374391437,1.202872832,1.91266468,0
16.82360137,0.1584871723,-0.9009737787,-0.1461149025,0.9264024495,0
307.3216312,0.2660553288,0.5684592891,-1.640102475,1.756094397,0
23.0,-1.33,-2.08,-4.76,5.36,0
390.4005187,5.0497449,-1.945232846,-3.408263651,6.395319812,0
18.889744,-0.03592733949,0.06471230507,-0.2637450939,0.2739341723,0
45.0,-1.85,-1.14,-2.47,3.29,0
180.8893314,0.9618729682,1.264453368,-0.07769721687,1.590622138,0
77.10169437,-0.2850091515,0.1883505106,3.710226731,3.725921165,0
369.670761,0.252547676,1.834343325,2.282299247,2.938959954,0
51.7,3.84,-2.83,8.22,9.5,0
485.6284627,-6.103438303,1.025391272,6.798860525,9.193905091,0
25.5,-0.295,-6.91,-5.24,8.67,0
453.9557943,1.846592218,0.7920424899,6.467803454,6.772718483,0
64.44600387,2.449043711,-2.424921461,2.764591627,4.418260524,0
12.7,1.25,0.723,1.26,1.92,0
160.9934875,-5.403376901,1.120295967,-0.4603397401,5.537459496,0
307.1309012,-3.769533285,1.268119426,0.2968636503,3.988187069,0
200.0923851,2.864645673,-1.505355583,2.735083069,4.237094483,0
316.6774272,2.08774484,0.721975451,-1.849449314,2.881039714,0
250.3238952,-4.873417434,-0.9342404889,1.233006165,5.113052609,0
142.9665428,0.3132635919,1.581422158,-0.3378380871,1.64716869,0
444.3486606,1.088559181,2.122231426,5.895453427,6.359653955,0
183.4791542,-2.485695228,0.08439505622,-2.378935595,3.441676606,0
159.658396,1.272958143,-2.793399104,-2.129875199,3.736290855,0
275.831266,1.507619771,2.324992692,5.181031848,5.875508438,0
10.2941645,-0.3579251001,-0.5314367661,-0.3169670355,0.7148450988,0
327.1676105,2.738007846,0.5877600709,5.286148413,5.982099457,0
437.8134088,-5.372031147,0.2622620939,-0.7234603514,5.426867875,0
82.70491,9.667631409,-2.270888844,-7.833702505,12.64859392,0
204.1377825,1.912232476,1.105226815,3.459127995,4.104110847,0
20.2,-1.26,1.94,3.06,3.83,0
511.780023,1.973404292,-2.423744124,1.448339822,3.444785671,0
139.4111395,4.778610095,-2.064833549,-2.426035502,5.743195999,0
436.8798014,-1.791345971,-1.567515579,-3.186583427,3.977479027,0
554.9485066,-0.5862108511,-0.4888747372,-0.2474974358,0.8024317113,0
33.3,3.02,-4.97,-5.62,8.09,0
216.6755376,-1.127183549,1.251798678,1.146463427,2.037626333,0
384.4676765,0.2855785972,4.471416095,2.631522447,5.196155062,0
13.935008,-0.3950460025,0.3668692204,-0.1972645909,0.5740798619,0
8.528902625,0.1315456876,0.2547076374,0.6257590789,0.6882983897,0
110.1895167,2.666015173,-1.451165343,-2.694143203,4.058561981,0
426.4394767,-5.945555879,1.967172038,-4.895104172,7.948675701,0
128.8245643,3.221023527,-4.255207111,2.957846197,6.101691097,0
329.7274231,2.333071205,-0.9199745983,1.262120914,2.807583251,0
255.965421,-1.829429471,2.156311484,1.837970499,3.372629087,0
166.6048838,2.656666059,-2.13802037,0.823972819,3.508266931,0
260.161433,-6.568860297,0.9627689078,-0.2163892253,6.642565308,0
443.0636961,2.817335266,-1.723999787,-1.550047753,3.648588947,0
495.7878877,-3.823717094,0.9494423725,7.28395606,8.281199739,0
3.677423,1.553708695,1.139915569,0.3698527622,1.962195015,0
52.8,-7.5,-6.72,-0.00121,10.1,0
151.4269926,1.132531412,-0.7171836577,-2.877507793,3.174433949,0
57.7,1.5,1.06,2.11,2.79,0
72.307577,-3.263448,3.081778518,12.23138463,13.02897623,0
405.157382,4.537551028,-2.30486833,-4.563044888,6.835434588,0
424.5521919,3.497441291,-3.480037054,1.061321535,5.046697621,0
151.4370306,1.223986543,-0.3932427212,-3.009810988,3.272880242,0
16.4,2.73,-1.66,5.75,6.58,0
205.673628,3.466823516,0.2751725999,-3.488600886,4.925943706,0
275.3393857,-2.839435987,1.458620689,5.718356468,6.549013035,0
308.7470822,-5.187428117,1.200283246,7.891957145,9.520140646,0
498.5988005,2.289491907,1.949781103,-2.459143606,3.884688767,0
79.02097258,-3.310810447,-0.4016679011,-3.065114538,4.529650102,0
259.0973727,-6.542113379,1.74623514,-0.3215898442,6.778790796,0
31.9,0.928,9.25,-8.04,12.3,0
482.0345218,0.9020347559,3.495239522,4.589251524,5.838800868,0
144.1090712,-3.903722792,0.1816213886,-0.7788713443,3.984805959,0
70.24786446,-6.907688318,1.64701827,0.3495825121,7.109925106,0
172.9055632,0.3003363848,0.5527963525,-0.2286037664,0.6693619599,0
158.4136469,-5.814486448,1.192963994,6.551545522,8.840484402,0
52.40894375,-0.1441366615,0.05271557271,1.888327889,1.89455444,0
109.1061357,3.832982007,-0.124548617,-1.605167701,4.157382202,0
76.77071937,1.117671883,-0.6252451086,0.5656753566,1.400039461,0
11.1,1.55,-6.57,-8.51,10.9,0
360.6360295,1.334771984,1.028924598,4.4094666,4.720561171,0
19.3,-0.227,-4.53,1.65,4.83,0
125.0763883,-0.2715335852,-1.56587792,-3.083119869,3.468621091,0
510.0231892,0.5598381543,-2.935328278,-3.600599039,4.679090114,0
4.76,-1.56,-3.67,-0.93,4.09,0
61.60605667,4.05588313,-1.378875192,0.9344458723,4.384595061,0
452.6607869,-4.579576136,1.621981662,0.7668785588,4.91847993,0
53.7,-1.81,-0.703,-1.11,2.23,0
167.0481335,-0.8203199172,-0.4584819335,0.2744039834,0.9789933585,0
17.5095015,-0.2521167362,-1.909083751,-1.29508313,2.320647309,0
253.5662662,-0.2498369068,-1.959305486,-2.737368745,3.375571672,0
117.4608748,0.01460378654,-2.919939868,-1.104664021,3.12194566,0
3.82,-2.05,-6.65,4.47,8.27,0
32.5,3.0,-2.44,-4.97,6.3,0
141.8231472,-1.826408799,0.3753690255,-0.4290306777,1.913305603,0
525.5436607,0.7738725597,2.669002515,2.022844255,3.437201193,0
416.7219815,-0.3285509545,-1.567031868,-2.968525552,3.372784985,0
476.4428425,-3.321396831,-1.087118427,1.778894325,3.921475284,0
110.0088076,-2.376837614,-2.554775403,3.764125196,5.132725679,0
434.6110369,2.621707311,-0.6939596866,3.23959136,4.224912005,0
55.19116158,-8.103908772,1.530728699,5.079227146,9.685815203,0
52.9,5.78,-5.83,-2.8,8.67,0
129.9378679,2.178037837,1.546741737,0.7055908218,2.762990631,0
154.3804576,-2.120504158,-1.320541615,-0.6133954337,2.572279534,0
450.1209673,-5.030927975,-0.4827311408,-2.306455995,5.555448218,0
434.1793689,2.521007733,2.937399069,5.414455621,6.655833753,0
72.86923112,4.952431444,-5.162528334,-3.795310736,8.098312144,0
272.4684184,0.9464426047,-0.3680826639,-3.538350751,3.681190634,0
44.65153908,5.865181223,-0.3731712033,-6.243532913,8.574456878,0
158.312148,2.223639395,2.315177556,1.851935989,3.705979786,0
8.67,-1.72,-2.71,-4.95,5.9,0
192.613922,3.454108745,0.4921244735,4.630211855,5.79757842,0
242.634554,-3.393218765,0.6468074472,0.785392013,3.542475699,0
407.4160917,2.735129846,-2.13609035,2.159061429,4.087219534,0
474.1238566,11.11735088,-1.277648926,-8.211067185,13.87982355,0
492.2039762,3.82766338,3.177949428,6.009160137,7.801305985,0
249.9825932,2.626187448,0.7487163761,-3.932587572,4.787763751,0
290.5976969,12.09649521,-1.189485339,-12.62373046,17.52423015,0
28.5,-9.19,-9.7,2.27,13.6,0
4.26,-12.0,1.92,6.26,13.7,0
456.9674435,1.931368659,0.9374514873,4.55856943,5.038804961,0
142.8562148,-1.717980371,-0.1001639736,1.824783273,2.508251058,0
246.0977699,0.7482319343,0.1990362972,1.711413802,1.878404556,0
63.73331846,1.101544678,-1.488045486,-3.856824029,4.278173867,0
323.6641862,1.418091298,3.779901568,4.186609915,5.816041728,0
327.9104572,-2.918737096,0.3286633672,-0.4930588585,2.978280188,0
209.4178872,1.396084718,0.8815174609,-0.8265828699,1.846446537,0
552.9406621,-0.1295661128,0.03816141441,-0.03822960757,0.1403751189,0
98.73581208,-5.399818286,0.5620694518,-0.5735931444,5.459209529,0
140.1481733,0.9097415324,2.70677085,1.778631785,3.364189222,0
415.7482254,2.012725064,-1.881312546,-1.939603001,3.369341015,0
35.42878117,1.3962021,-1.222099354,-0.3476023525,1.887785616,0
133.5786747,-0.5829194899,1.196924459,1.627925064,2.102989136,0
152.9261335,-2.801794244,0.4871818221,0.4769056329,2.883545751,0
126.3111056,3.25524728,-0.9689209096,0.4797465026,3.430101936,0
254.3492547,2.730836821,-0.5111434194,-1.131618808,2.999883075,0
45.43448112,-6.258811103,1.295219517,-1.275244405,6.517404261,0
62.4,3.2,2.11,-1.65,4.18,0
50.2,-0.134,-2.36,-2.13,3.18,0
10.3,-0.0162,-0.332,0.136,0.359,0
139.5014845,0.6904591048,1.731034572,4.444531767,4.8194478,0
103.3491042,2.217505373,-0.3343133855,-1.680110294,2.802118149,0
43.54738983,1.224266624,-0.5443067801,-4.291872076,4.49613885,0
48.5,-4.08,-0.127,0.0645,4.08,0
186.510694,-3.782244548,-0.4621433137,0.8470050015,3.903379015,0
450.3117053,3.683941743,-1.676664822,-1.831481844,4.442629563,0
291.7420709,3.425987146,0.585675977,3.168376366,4.703085485,0
103.0924211,5.280690622,-0.434066446,-2.465180857,5.84390484,0
521.2970921,3.081998373,-2.839728056,-2.299796893,4.780359312,0
216.2740071,3.439124086,-1.269637217,-3.262552499,4.907525033,0
57.2,-1.43,14.8,-20.3,25.2,0
425.2649429,-0.6771145892,0.9788671696,0.3869003195,1.251541833,0
92.06577938,0.8384891897,-2.11566471,0.001626987755,2.275764473,0
109.5574716,-2.245703278,2.54966903,1.516383871,3.720674054,0
62.3,-0.242,6.8,8.06,10.5,0
143.8781902,3.204008129,0.6832758003,2.266252148,3.983520141,0
27.8,1.63,-0.785,-6.33,6.58,0
500.7371047,-0.8716713345,0.7065750544,-5.900343454,6.006089584,0
19.0,2.23,-1.96,-7.75,8.3,0
481.0205897,0.6421149105,3.632438006,3.115198864,4.828186138,0
46.1,-1.7,9.33,-11.5,14.9,0
524.8308787,2.435662358,1.207320516,-3.461114295,4.401066474,0
50.0,1.33,-1.65,-0.291,2.14,0
132.6453013,2.236643018,-0.5095354351,-0.005674138069,2.293955218,0
213.3729535,-4.431164448,1.422423208,0.4101045562,4.671904525,0
60.97419437,-0.06838114053,-0.5498610502,0.6535634664,0.8568362501,0
105.8730342,-4.998451955,0.4097795972,0.15323915,5.017561509,0
0.784,14.5,1.26,5.92,15.8,0
368.8877502,-4.743581765,-0.6768701756,0.07799352452,4.792265037,0
14.9,2.09,1.06,2.85,3.69,0
36.1,-1.75,-1.87,-2.81,3.8,0
16.8,-2.4,1.21,0.965,2.85,0
31.63261525,0.5495254201,1.145502729,-2.316304899,2.641859776,0
491.3205485,-6.513889453,0.517424937,0.03581244171,6.534505866,0
66.86153829,2.001107669,-3.088756,1.282344386,3.897339177,0
217.428407,6.382784353,3.246551593,-1.523468649,7.321269704,0
305.1633788,-0.004203563333,0.4877276596,-0.3714386733,0.6130763639,0
358.3171185,-5.484647936,1.760232498,0.8273710746,5.819306172,0
58.08568175,-1.205521913,-0.415010224,-0.6977722174,1.453410691,0
61.0,-2.44,-1.41,-4.52,5.33,0
28.9,-0.756,-0.0483,-2.52,2.63,0
285.2974368,-1.663947421,0.6692845827,0.1967265008,1.804262782,0
264.4477913,-0.7498650616,1.172959646,1.059058809,1.749210537,0
64.464479,0.8553487589,-0.7629031831,1.206562425,1.664162147,0
161.9529771,2.05853332,-2.389725462,2.542854685,4.051475924,0
462.5189246,2.064785748,-2.441588219,0.6180149534,3.256783029,0
495.7979267,-4.168577102,1.045505548,7.2119897,8.395410195,0
17.98706192,-0.6405336041,-0.03959529787,-1.578127837,1.703625121,0
189.291276,1.2708549,1.468571481,-2.208608104,2.941041333,0
115.0681519,1.148240542,2.785381695,5.346616809,6.137028502,0
21.96626758,0.935336988,0.1809264471,-2.083661291,2.291120694,0
16.2,2.03,-9.53,1.23,9.82,0
13.5,-2.99,-2.71,-0.459,4.06,0
2.5,5.26,-5.08,2.57,7.75,0
9.07,-2.1,-2.34,-2.19,3.84,0
86.34892913,-0.7734316065,-0.05617946327,3.286084911,3.376345157,0
12.7,-2.04,-3.98,-1.06,4.6,0
82.87870817,-0.2606600481,0.228426742,3.406477327,3.424063407,0
503.8692695,-0.6326815975,-0.7806591305,-2.733307854,2.912161827,0
68.57154762,2.870473008,-1.364970514,4.043633798,5.143319365,0
104.2216862,-0.7553143743,-6.82606645,-5.278420733,8.661836319,0
515.6450665,1.686991882,0.43866762,-4.871396052,5.173864164,0
23.96378075,-0.8270295972,1.537605463,0.9592195018,1.992061888,0
45.9,-1.92,-1.9,-2.83,3.91,0
217.338063,-0.3146386743,1.45955829,1.414138581,2.056476555,0
47.2,0.994,-2.04,-0.273,2.29,0
496.2396417,1.818243747,3.61415727,3.880702888,5.606067963,0
529.2280436,-5.282413212,0.5403300887,-1.508191044,5.520007806,0
131.4808537,2.703850166,-1.917786016,-3.319764288,4.691433028,0
372.56188,2.501280981,0.7202562234,-3.715323749,4.536386903,0
362.2823568,-3.238490329,2.74658922,0.8250859827,4.325776096,0
231.9939559,-4.893204412,0.4690319185,0.8253271803,4.984436308,0
437.0705384,4.791973906,-1.611572302,0.04660406291,5.055922383,0
49.3,2.6,13.9,-8.82,16.7,0
218.5426542,-0.3695191786,-0.6457501245,-0.2263603359,0.7776738701,0
349.6638796,3.145841197,-1.654870934,2.942176829,4.614251742,0
32.66650133,-1.710849107,-0.2432541114,1.847146827,2.529452239,0
26.98514225,-1.411507334,0.1581754426,1.376165008,1.977676048,0
72.42607537,3.310902248,0.004749254733,-1.413335319,3.599946246,0
107.9226341,-0.8392317861,1.03952677,2.753809069,3.060782626,0
72.25743,-8.785981216,-5.794350391,7.734254816,13.06088282,0
6.49,0.221,-1.19,0.286,1.24,0
18.392826,-1.900340994,-1.754149639,3.511056533,4.360717238,0
63.7222925,-1.525898752,0.8357770318,3.132614211,3.583317184,0
69.03794879,-0.3363224522,0.6893732768,3.521781788,3.604343944,0
254.4797527,-6.362890372,-1.045973909,0.7774633348,6.494989187,0
59.8,4.07,-0.963,-3.91,5.73,0
366.0970202,4.282421222,-3.221176431,-4.328080959,6.888206872,0
24.63680788,-0.2209937614,-0.3757789153,-1.624621972,1.682095297,0
425.2147499,-5.281327384,1.028045908,0.2111318475,5.384595991,0
35.79987917,0.332456456,0.1975012569,-0.4898539996,0.6240921266,0
161.6158614,-3.019867029,0.291454318,-2.303630474,3.809364232,0
61.73644167,0.8800612119,0.8538156921,0.3946858871,1.288132727,0
409.0423627,-7.302585289,1.700739125,0.1727787906,7.500007866,0
69.29871679,1.502995793,-0.7332168692,-0.9250295162,1.911094696,0
104.6282826,3.240369624,-2.030379708,-7.139485395,8.099054807,0
124.1005538,0.7695216465,-1.849721356,0.1906630844,2.01245747,0
249.9324022,0.6450794488,0.8572525392,-1.585846892,1.91465918,0
59.72823708,1.823798018,-1.308531872,1.893005077,2.936317948,0
57.9,1.18,4.54,-8.08,9.35,0
530.9246672,-1.032031224,-2.327965562,0.3731672564,2.573667793,0
311.0458753,3.016896059,-3.555312354,-3.717781919,5.963540069,0
210.7830869,-3.498130093,0.08325821131,-2.268726105,4.170247501,0
269.6275672,-3.199046182,1.859394697,0.9843967353,3.828874775,0
34.2,5.38,-4.66,6.77,9.82,0
452.4700486,2.348877983,-1.306407871,2.087371203,3.403093864,0
502.9757994,0.06589461207,1.382780255,-0.4771544319,1.464274457,0
27.8,-2.06,8.7,3.76,9.7,0
482.7573256,1.166372173,-2.303982477,-2.149589086,3.359984009,0
69.28868679,1.327938635,-0.7762997389,0.6178004336,1.657630743,0
21.7,5.02,-0.723,-4.63,6.86,0
263.8956847,-0.1677075005,-0.9549599513,-1.464756903,1.756583929,0
19.4,0.919,-2.47,-0.325,2.65,0
204.4690438,0.4322127324,-1.611588674,-2.325851063,2.86244809,0
61.0,-2.78,-1.08,-4.05,5.03,0
0.902,9.19,2.46,-1.45,9.62,0
198.9881825,2.24686395,-0.03019926086,2.591349737,3.42992756,0
316.0851593,-5.583763504,-0.2557254184,-1.609748994,5.816794838,0
42.51974687,0.4932166237,0.964713107,0.5562619972,1.21793326,0
46.7,-0.485,-0.614,1.1,1.35,0
528.2943989,-1.846273545,-1.454559213,-3.428512559,4.156821727,0
432.9646751,3.073549147,-1.757859697,-3.031816399,4.661403839,0
123.9621312,-6.006554618,-0.6473357432,-1.278748787,6.175187479,0
385.4012705,0.9463660061,-0.5711190413,1.898411998,2.196759816,0
425.1043229,-2.067589488,3.323617018,0.6349187422,3.965410217,0
31.7,-5.48,-22.9,32.4,40.0,0
163.6680781,0.8969772068,-5.891383765,-0.08725025162,5.959914713,0
5.132909583,1.931206691,1.710076982,4.352676687,5.059616281,0
10.9,-0.798,9.77,-8.53,13.0,0
422.2332437,-5.696790767,1.100455634,0.7843724048,5.854884091,0
12.821693,-1.407775202,-0.4669984031,-1.139453931,1.870367287,0
101.1650717,0.924032566,3.173979169,-1.109480665,3.486965341,0
61.45473708,-5.971705213,0.6130919632,2.242162789,6.408154093,0
343.0183792,1.290047216,-0.04578618363,2.558743324,2.865917932,0
66.39334083,3.843625694,-0.3403291471,-2.789645192,4.761449643,0
335.3188583,-1.209319972,1.958310436,-0.2639667034,2.316703041,0
306.8598652,3.093107498,-1.876172405,-2.924034088,4.651592441,0
203.3447635,-4.357985374,-0.7156030092,-1.396124625,4.631769441,0
203.4551835,0.9674966741,-2.252151588,-3.184825169,4.018873965,0
5.69,1.06,-1.03,-5.04,5.25,0
32.9,-3.03,4.97,4.34,7.26,0
33.0,-0.944,-1.77,-1.26,2.37,0
519.1989122,1.084746796,-1.619387691,-2.169170242,2.916229011,0
325.1599165,1.328048855,-0.03762098551,0.9710788245,1.645637622,0
528.2442029,-5.841035146,0.191754321,-2.127551515,6.219400031,0
147.251059,1.114792714,-2.590916166,-2.409373861,3.709540642,0
282.6372693,-5.722133769,0.5035057864,-0.5401594962,5.769584494,0
44.4,2.81,-7.83,-24.4,25.8,0
151.150857,-3.405212574,-5.610423884,1.044872294,6.645606589,0
140.2945127,-7.000920417,1.27334786,-0.1521829967,7.117405505,0
180.718646,2.383822698,2.853830663,5.425206311,6.577220053,0
32.0,5.25,4.71,-5.77,9.11,0
166.3539278,1.86094187,1.174398646,-4.257542489,4.792596881,0
51.42700433,-0.8955273896,-0.1062763605,2.53843302,2.693864542,0
242.534171,-2.192243355,2.997930615,0.5141252071,3.749379099,0
395.7611662,-4.394286059,1.496548507,-0.5261348033,4.671854581,0
484.8956193,4.220316775,-2.075858036,-3.477658991,5.849305286,0
8.48,1.07,-0.603,-0.482,1.32,0
1.8,-2.64,3.86,-4.35,6.39,0
71.83384296,-2.926234396,-0.5730410211,-3.418648891,4.536340374,0
442.9432301,-5.921638429,-0.2729721464,-1.85090644,6.210166674,0
246.2383069,-4.558205148,-0.712500038,0.1200116162,4.615115737,0
15.32915738,-0.4543112607,-0.4804037297,0.4413338041,0.7949603712,0
521.3472871,3.223691611,0.4416808364,0.09702869654,3.255254849,0
161.2544834,8.824890343,-1.524070036,-8.656273016,12.45522146,0
413.0980035,-5.755458221,1.501406374,0.8659556812,6.010773633,0
473.1601241,2.923187996,1.222283395,5.608670304,6.441753436,0
117.7885457,-2.769881018,0.8445959486,-1.298811607,3.17371939,0
14.2,1.36,2.61,1.69,3.39,0
165.6640154,0.04476935282,2.675703424,1.485534253,3.060752379,0
54.48851825,3.735349878,0.07929175258,0.2821651389,3.746831069,0
142.2845172,-3.36549887,-1.962714998,-1.3412162,4.120399702,0
192.383043,0.1358267266,0.1422756207,0.1105363494,0.2256314172,0
75.27631912,2.480516349,-0.1778875029,0.4080070138,2.520133934,0
163.6737084,-2.300095832,-1.289529006,-1.282914636,2.932438552,0
224.3247005,-1.726753533,2.514445695,1.688168342,3.486262651,0
297.5944431,-0.2487130719,3.334871154,1.639121897,3.724237426,0
26.13193425,-0.3493880922,0.5111840576,1.999981642,2.093635056,0
242.0724099,-4.730093408,-0.3633866188,-0.5679402025,4.777906399,0
401.7442223,2.399600825,-0.2277864718,0.3935649759,2.442307144,0
83.08932817,3.109670906,-1.166748734,-1.878124206,3.815587279,0
3.513937,0.6943504999,1.4310613,-0.3229311955,1.623066116,0
464.8278602,0.5372287256,1.059357748,0.8797913629,1.478136118,0
10.4,-2.41,-1.4,1.17,3.02,0
225.1879935,-2.695910232,3.964254922,-0.2503754354,4.80061839,0
149.6000223,-1.344593552,3.024968725,2.054982306,3.896321327,0
253.1948495,0.3467925131,0.6259422429,-5.202989312,5.251967872,0
52.73992075,2.020338869,0.5955020767,-0.6948503637,2.217928966,0
24.40544583,-4.884561058,-0.2700963396,0.6059931511,4.929413399,0
529.4388666,2.626856369,-2.733092676,-0.7704490149,3.868302166,0
12.0,-1.35,-2.1,-3.43,4.24,0
155.0708941,7.176453831,-2.222167066,-10.34520267,12.78525456,0
142.0311417,0.09474594355,-2.924917603,-2.558641582,3.88725694,0
63.05031313,4.431889502,-0.9346470165,4.010468391,6.049716218,0
310.9254143,-1.644674413,-0.8123106936,-2.952277309,3.475736454,0
171.7745847,2.786261408,-0.07404943138,3.067289702,4.144514697,0
2.33,0.0317,-10.2,11.8,15.6,0
134.2112827,2.112230641,0.5912808256,3.356339791,4.009507213,0
355.3256252,-2.59108018,0.6822582386,0.2260865401,2.688919472,0
168.6426505,1.116394266,1.428377428,5.340552077,5.639866552,0
36.32023221,0.2030264372,1.35691612,-1.157721217,1.795204587,0
381.9981731,-5.501320102,0.8640117744,3.116305157,6.381410271,0
324.8286475,-4.459179627,0.4526093555,0.3679779987,4.497170887,0
494.4025104,-4.66909233,-0.009898020476,0.04559366405,4.669325427,0
119.035541,5.140472052,-2.081360558,0.855025481,5.6113798,0
305.7556441,1.158216476,-0.5956580512,-1.648495569,2.100907318,0
520.3433731,1.628185265,-0.4054032487,0.5099233614,1.753670689,0
197.0006182,-3.346852099,0.6343166251,4.502239693,5.645700914,0
38.8,-3.63,4.44,5.26,7.78,0
123.5087998,0.2054802943,-0.3722790644,-1.87298655,1.920648971,0
554.5067802,0.06909011543,-2.538195916,-1.130778417,2.779545247,0
53.15113375,0.7918071395,1.506658197,0.6607213354,1.825795758,0
28.4,2.05,-0.464,-1.08,2.36,0
516.6690543,4.402892575,-2.322498708,-3.934066917,6.344788869,0
183.0675873,5.359770121,-1.508828683,-2.199189262,5.98666294,0
238.9504966,-2.90801798,-0.3105804142,-2.479843335,3.834403699,0
347.003669,4.664199965,0.3321037958,-1.636377799,4.954067677,0
245.3348589,2.21119652,-2.146409809,-1.309344928,3.348260631,0
399.2345489,0.7096175069,-2.500858812,2.158428322,3.37885552,0
86.23860412,-1.402074605,3.394205775,4.107913409,5.510117841,0
217.348101,0.5674810499,1.689778081,-1.266936096,2.186895465,0
40.7368295,-1.994833753,-1.955817183,2.455507223,3.719421767,0
111.3929046,2.647000027,1.712741266,4.191454626,5.244843532,0
297.7048651,-3.423282809,1.451800204,0.4708031863,3.748098807,0
56.3,4.64,-18.2,-14.2,23.5,0
151.3366476,-1.133268746,-0.9088499781,-2.426474189,2.828088281,0
102.5704301,1.794023411,-3.064104724,-3.76115598,5.172383596,0
22.9,1.44,7.3,-3.49,8.22,0
0.844,-0.147,-1.15,1.02,1.54,0
24.4,-1.27,-1.91,-4.24,4.82,0
86.98111275,-1.923433403,-1.554034969,-1.201035052,2.749019086,0
17.1079915,0.8565539432,1.697447581,-1.354523293,2.334469169,0
507.0516375,8.044990473,-1.121640827,-0.5727985078,8.142975377,0
27.7,-0.668,7.66,-9.12,11.9,0
240.1450551,2.04202897,-0.3752004795,-3.263160317,3.867670225,0
298.7087027,1.297024698,5.197328623,6.309837415,8.27698895,0
327.0772635,7.481563883,-0.8517397843,-9.139362956,11.84175722,0
445.9649068,-5.449700882,0.7825768711,1.773981348,5.784347508,0
104.1464433,0.6272273147,3.816513324,-1.609833194,4.189361643,0
32.48582233,-1.804380584,-0.1171669458,0.9530983441,2.043994579,0
22.3,-0.522,-1.1,-0.847,1.48,0
11.3,3.36,0.366,1.49,3.69,0
136.2992573,-2.130491495,0.4390494432,-2.483731148,3.30161761,0
169.4356728,-5.949277632,0.2759726451,-0.5138609129,5.977802128,0
183.4670069,0.5997041783,-1.229905679,0.9589731878,1.670910727,0
155.6943637,-2.645074247,-6.691516171,-2.42237953,7.59214917,0
64.2137405,-5.887987702,0.6141757447,2.866307744,6.577334651,0
42.26256112,-0.6873916554,1.228427211,2.913964598,3.23615982,0
13.854769,-0.02268237278,-0.1115461636,-0.03591418326,0.1193602329,0
8.947274708,-5.113584216,0.1896123397,-0.4570400101,5.137468437,0
533.5348605,3.910599702,-1.754007259,-0.4551525289,4.310045861,0
40.2048305,0.1235124904,2.561308497,1.906323134,3.195250295,0
37.93630575,3.246493413,-2.246175879,-4.025549237,5.638268549,0
8.7,-0.823,-0.56,-0.315,1.04,0
121.0113954,0.430027701,1.00216043,-0.2966631639,1.130158566,0
474.3346736,-5.106126677,-0.01563428521,5.783777456,7.7152353,0
239.8639831,-1.793711754,-0.1204492803,6.332262656,6.582511696,0
525.2424847,-3.5909371,0.2874162309,-2.823988813,4.577373719,0
23.24106275,-0.06286166131,0.7496057376,3.508954459,3.588679666,0
158.883849,3.987363119,0.9496375233,1.063416446,4.234587418,0
50.42323046,2.053974831,1.546808395,3.625592963,4.444811936,0
326.374571,-4.097045774,0.07984358355,-1.693554212,4.433991988,0
24.79691883,-1.545092822,2.285113073,2.300274757,3.591701205,0
116.2272195,4.701256402,0.1431813544,1.927676142,5.083133676,0
41.2,1.68,1.05,3.24,3.8,0
62.3,-1.02,-0.542,0.302,1.19,0
64.584834,0.7690824475,0.08147393346,-1.422253785,1.618929165,0
513.8982656,-3.19457774,-0.6210234189,4.355692096,5.437191431,0
511.950687,-6.162432032,0.03429523543,-1.192464349,6.276839645,0
34.9,3.09,2.34,6.7,7.74,0
351.3905095,0.9142028117,1.586503096,-1.541123879,2.393286791,0
449.3078268,2.963150207,-0.5744950774,-0.3966230696,3.044275546,0
2.161705958,-1.225227907,0.857852829,-0.597557373,1.61064264,0
28.90947642,0.3360887463,-2.186916541,0.1598541051,2.218358163,0
332.5181205,-1.522786864,-0.6090606004,-2.361466454,2.875127555,0
281.5932795,-4.81263972,-0.3042502186,0.05777166009,4.822593373,0
130.8383991,0.7541984332,0.599511074,-1.036009377,1.414759426,0
146.8781605,-0.2363971547,-0.4922899497,-0.1823044896,0.5757325214,0
362.1920098,2.835544665,-0.7929933934,2.669534027,3.974363344,0
287.9074128,0.2062967849,-1.71250957,-3.120091229,3.565139081,0
44.4,3.07,2.4,2.78,4.79,0
321.6765722,-4.477258049,1.687499128,-0.3707327682,4.799055712,0
157.760508,2.005267086,2.784437662,0.9415780136,3.558195938,0
39.62117937,-0.5565953616,-0.9599800783,0.4685204333,1.204521292,0
9.67231475,0.5796973452,1.059669843,-0.3546915168,1.258870629,0
528.7060056,-6.488678014,0.8409429006,-0.1660859214,6.545052472,0
142.1917547,2.850607093,0.1399561764,-0.2188647537,2.862420359,0
221.7549015,-0.1728790703,0.5001269728,-3.352316907,3.393824216,0
138.1161961,-5.762903481,1.676970193,0.05942715302,6.002234346,0
474.7362291,1.072049568,-0.8786630695,-0.06464447737,1.387630345,0
52.85236458,4.406680402,-1.580594338,-1.355606929,4.873887644,0
31.51720187,-0.3677713727,0.3398865129,0.7857353908,0.9317503574,0
76.47133946,-0.8321260303,-0.2528778975,0.2274578583,0.8989538579,0
2.7,1.49,1.6,-3.37,4.02,0
225.8705976,-4.905024558,-2.283508012,-3.721276507,6.566701882,0
252.6527815,3.530628333,-2.307348426,-3.955270675,5.782158706,0
33.08808533,-1.399118838,1.904775669,2.96312331,3.790224745,0
506.248515,1.890262733,-0.4481383552,1.038660212,2.202892694,0
470.5098582,3.706560527,-3.366467754,-2.795482467,5.734668107,0
19.2,4.58,2.89,-2.82,6.11,0
391.1534173,-6.067721756,0.03816872343,-1.094186103,6.165707371,0
113.3587249,1.524818187,1.830255098,-2.053032552,3.144812695,0
476.0412865,-1.573169982,-0.1696902913,0.6255443399,1.701459465,0
103.5039923,0.2029895997,-1.460029868,-1.929208113,2.427907728,0
110.3601687,2.533158247,-0.6612350133,4.125504758,4.886093731,0
161.4251334,1.883450142,-3.257966235,2.951186219,4.782387325,0
467.2873816,-5.97741268,-0.1992679931,-0.5689533788,6.00773485,0
81.12353825,2.047645513,-4.545134867,-3.086062773,5.863010024,0
206.5068016,-3.503928192,0.135522379,-1.92682011,4.001064212,0
175.814222,-2.884905983,-1.351647633,-0.3928217947,3.209975516,0
466.4742335,3.212965479,-3.164060829,-4.149354381,6.127933573,0
1.649777083,0.4494503242,0.8693644617,-2.193570673,2.401989271,0
429.8928105,1.120798389,-1.789375751,-1.62401737,2.66373554,0
60.7,3.03,-1.07,-2.72,4.21,0
30.3,-1.67,-2.41,-3.22,4.35,0
175.25255,1.068615498,-1.652597975,2.110688145,2.885831526,0
448.5247998,-7.116752005,1.751540612,-0.842255162,7.377360461,0
418.5891845,-6.392857352,0.5974768277,6.473502735,9.117666442,0
183.7200712,2.49860588,-0.9363568155,0.2842237608,2.683389382,0
160.5618415,-6.286844409,0.1404872498,-2.748545698,6.862845819,0
296.1087636,-1.25210171,0.3844512132,-1.600777026,2.06834439,0
444.4189316,-6.534727761,1.705142955,0.05623223439,6.753764985,0
532.3602731,2.80992626,-2.190813711,-2.122533288,4.147348293,0
482.5063518,1.538595981,-0.3398221935,3.65419988,3.97943884,0
166.9261088,1.697213985,-0.5373186996,-1.934488733,2.62897192,0
132.8164094,1.656838668,2.54748451,3.112074112,4.349689297,0
118.634352,-0.6197880484,-0.7135000581,0.1767613292,0.9614905747,0
220.2290838,-1.017269928,0.4647919562,-7.88428209,7.963213782,0
530.2721201,-1.632237386,0.7159608588,1.594314976,2.391367616,0
16.0,-2.11,8.34,4.56,9.73,0
124.0704648,1.381490944,-1.49139404,0.5673342848,2.11060219,0
29.18027842,2.099095455,0.9986477154,-0.2268836617,2.335588831,0
148.7668434,2.675043274,1.549571643,-1.692832227,3.524586464,0
134.6418275,2.727819073,2.566870953,-0.9612518477,3.867018037,0
1.367523625,-0.1930120206,-2.176243619,-3.30480711,3.961696602,0
510.2842032,4.035560548,3.983816782,4.700769036,7.365716165,0
183.5694972,0.8929095912,-2.540764305,-2.054570662,3.387333966,0
554.6874866,0.05489132166,-1.309283971,0.2629029487,1.336546121,0
122.204933,-0.3941494782,-1.083796185,-0.7243828958,1.361873181,0
27.67582117,0.2170943995,1.168790581,-0.7819417173,1.42289643,0
15.4,2.27,-2.14,2.81,4.2,0
71.3347115,0.4859260594,0.2030439788,0.04607957681,0.5286533079,0
113.8401508,3.04352691,2.779255275,3.463390031,5.383529181,0
350.7881965,-5.728469812,-0.4903803952,-1.340996929,5.903737129,0
375.934852,-4.682673658,1.15806211,6.256974492,7.900523415,0
1.22,-7.78,-3.54,0.129,8.55,0
478.4205076,0.9907855493,-1.28142228,6.665160431,6.859159032,0
166.6450368,1.39144963,-1.481810892,5.047770295,5.441679938,0
150.8347322,1.052157925,0.1668599465,-1.414080108,1.770452229,0
548.4832485,-0.006559406519,-0.006913016886,0.02657625295,0.02823318681,0
83.70871083,5.420457203,-1.096715755,-1.684586338,5.781174004,0
116.3028697,1.696462033,0.4591553865,0.3051334405,1.783791892,0
25.2,-1.77,2.8,2.51,4.16,0
52.0,1.69,1.99,0.503,2.66,0
27.54725883,-0.7196671164,1.125405703,-1.125436985,1.746730421,0
8.709440625,-0.08279423475,-0.09915766776,-0.7840958315,0.7946655909,0
122.525886,-0.48562226,0.7404813038,0.8608493078,1.234991122,0
161.1440615,1.840670743,0.7163007282,-1.580290137,2.529520198,0
114.5522585,1.141188215,0.8181652182,3.378877884,3.659032744,0
129.5868269,3.400501765,-1.681766226,-1.607798363,4.120287061,0
277.4374018,-5.548789553,0.319128605,3.066052431,6.347565367,0
53.6,2.16,-1.04,9.78,10.1,0
218.111009,0.00156149894,-1.456513937,-0.9328794032,1.729652933,0
188.0465385,-3.013949062,2.601896945,-0.08342865765,3.982551569,0
38.5887575,0.03975638866,0.1043482411,2.905972039,2.908116679,0
55.73320058,-6.760895723,2.130917757,-1.164260159,7.183733234,0
292.3945655,-2.96694505,1.7398684,1.546527144,3.771160456,0
282.2457735,2.751984445,0.6702702771,-0.7569752759,2.931841094,0
21.3,1.18,3.65,1.17,4.01,0
61.9,2.35,3.7,-7.82,8.97,0
207.7716175,3.758503683,-2.340128794,-3.162421562,5.440906436,0
432.9747141,3.22174098,-2.209223815,-3.264647849,5.090993065,0
101.152611,0.06532385074,0.5684844321,-1.995413212,2.075840948,0
2.09,0.609,0.729,3.54,3.66,0
427.7244372,-5.192592963,0.002144466341,-1.798099505,5.495105832,0
384.6383335,-1.062485277,0.1657372811,0.09174266741,1.079240718,0
325.471109,1.933368992,-0.1383279461,-0.3733529055,1.973940898,0
53.9,4.69,2.49,2.14,5.72,0
173.2803207,2.933517103,-0.3126003349,-2.964926591,4.18258667,0
303.7278906,3.979502707,-2.332820652,-4.034393443,6.128199119,0
179.915589,1.355420841,1.797645322,-3.167723817,3.886279525,0
145.5947397,-7.322191004,0.8010006436,1.258295081,7.472575837,0
152.6115114,1.106450492,-1.497557298,0.5448084712,1.940032686,0
98.76555712,-0.1753902302,0.8886656821,0.9224999376,1.292862933,0
459.517309,0.9237197399,-0.004117755443,1.476865756,1.741955101,0
127.7212912,4.945684927,-5.403141843,3.757129587,8.232239301,0
361.8306208,-5.880536596,-0.2040898995,0.6304507385,5.917755611,0
187.7052395,1.252719176,-2.264069529,-2.746112087,3.773121752,0
406.5326847,-4.602918221,-0.07247901544,-1.076436149,4.727665824,0
115.0882289,-0.585791021,2.497536424,1.653362645,3.051957953,0
33.6,-4.42,6.62,6.39,10.2,0
314.117629,0.5702614009,-1.560764968,-1.888298069,2.515324024,0
77.58311187,-1.879971049,1.528717695,3.420269154,4.191599936,0
21.48746113,0.9602236149,1.375098183,0.6283067107,1.791003553,0
46.6,0.821,2.86,1.85,3.51,0
112.3076078,4.573762835,-1.035937018,-5.933559147,7.56304146,0
2.03,0.56,1.38,1.5,2.11,0
190.8371603,0.05432648063,-1.734752671,-2.357781538,2.927704216,0
54.58889625,3.056841897,0.7783111811,5.328978683,6.192581407,0
71.0940035,-1.368160316,-0.8763836056,1.890571028,2.492823637,0
16.5,-1.24,-1.08,-2.8,3.25,0
257.7321623,2.922311499,-2.42209901,-2.656638578,4.632946864,0
6.287254833,0.01897421479,-3.681188289,-5.285069017,6.440765619,0
6.53,1.61,0.423,-0.881,1.88,0
303.6275066,0.0262329483,-1.660761419,-2.405935698,2.923583972,0
28.3,-1.57,-2.01,-3.15,4.05,0
451.496284,-2.026139161,1.328439303,0.6354957893,2.504764616,0
83.28711483,3.945971264,-0.8534584272,-0.04641300514,4.037478751,0
54.5,-2.85,-0.844,-1.52,3.34,0
62.54885787,-4.87997918,0.705092639,1.12281334,5.056882658,0
95.96729287,0.8959874924,0.1275359595,-0.7865760742,1.19906669,0
560.9720456,1.323641809,-2.081351495,1.281452394,2.779599237,0
44.8365905,-0.597993283,0.6628225324,1.090284694,1.409131077,0
8.01,1.49,8.38,-11.1,14.0,0
61.5,-3.29,-2.78,-2.96,5.23,0
92.33657837,0.2804954664,0.7619313759,0.156128844,0.8267970393,0
39.6,0.274,2.86,-8.48,8.95,0
62.05700508,-3.966665729,-0.04251481265,-1.776049362,4.34633131,0
182.273453,1.791723555,-2.32793735,2.792932497,4.053398269,0
133.9196867,2.092701233,-0.1991204971,1.854112907,2.8029952,0
284.323715,3.151424119,1.584846726,-4.397070503,5.637148404,0
503.5078654,-1.387188764,-0.1424750108,1.091120408,1.770631396,0
28.78911942,-0.8919496246,-2.136207879,0.2875175339,2.332728996,0
284.7654028,-2.322010027,-1.260061086,-3.229361072,4.17232039,0
65.81846679,1.363433865,1.005103626,-0.07790716846,1.69565761,0
17.44545192,0.05408871822,0.7087138197,-0.09566161752,0.7171833885,0
320.0101891,-0.4735133708,-0.6944594774,4.434255286,4.513214909,0
362.9147882,-1.162089672,-0.3923566487,-2.912239085,3.159989341,0
63.1,-6.77,-32.6,31.9,46.1,0
184.6636627,2.672326657,-2.592625015,-4.182388811,5.599590199,0
161.7624101,0.4354948477,-2.123049744,-2.336329858,3.186759041,0
0.264,1.4,-1.77,-6.58,6.95,0
27.26620183,1.911989817,-0.1805501056,1.265222277,2.299802342,0
273.3819076,-3.540918263,-0.2888135692,-3.087861961,4.707059264,0
311.2767593,-5.096566479,0.9673355833,0.8881914729,5.263042096,0
4.16927525,3.439638056,4.418267244,-0.5364399362,5.624941173,0
520.6445471,0.09987161279,-0.672331713,-0.4303248127,0.8044772935,0
190.044141,0.002803155184,-0.7681582951,1.365050036,1.566344989,0
183.7602232,1.722671592,-0.9522346372,1.181871387,2.295902479,0
47.96398833,-6.153571746,1.274513503,3.73348754,7.309566274,0
180.216736,-1.685724206,-0.1088505971,4.282208968,4.603349671,0
454.1465323,-6.16100765,-0.4953912397,-1.539607695,6.369758206,0
389.236034,-0.411601882,-1.18636775,-3.141727096,3.383390858,0
292.3142589,-0.1626607686,1.984526428,2.670880641,3.331427181,0
535.0708591,1.881025302,1.487729152,4.240356352,4.871572252,0
18.438402,-1.204793057,-0.08255172148,1.748278888,2.12481062,0
29.6,0.098,-2.29,0.893,2.46,0
366.2777152,-1.284293556,3.257463959,0.9168654875,3.619547445,0
503.9796985,-0.7495498967,-0.3455691294,-2.510430704,2.642632285,0
12.4,-0.418,-0.887,1.74,2.0,0
57.2,0.57,2.03,0.572,2.19,0
517.5725743,-3.739369254,0.6142875727,1.317790061,4.012082039,0
116.0418715,1.934053701,0.5429053487,2.355113015,3.095459134,0
468.1808402,-3.320233235,0.9220619081,4.744644789,5.863940745,0
6.75,1.52,2.58,-5.14,5.95,0
486.5018517,1.183740742,0.08999354593,2.886917717,3.1214796,0
474.2242456,1.400295298,-0.3651605178,1.224882263,1.895918163,0
29.5,2.28,1.63,3.02,4.12,0
361.3889225,-4.209743255,0.3514787641,0.3760531497,4.241095562,0
179.453831,3.213663052,-1.080725155,-3.054807066,4.563709378,0
239.8338681,1.775227536,-1.586665649,3.420882527,4.167898505,0
2.07,-1.79,-2.52,-1.2,3.32,0
149.3691413,0.8859747934,-1.59007209,-3.491107002,3.937144738,0
50.40315546,1.252535573,0.4926567163,3.57582731,3.820745602,0
62.9,-0.715,0.0691,-3.69,3.75,0
69.82627583,0.440046832,-2.045829075,-2.289692466,3.101894487,0
273.8135566,-2.934264961,2.640179835,0.3780289239,3.965270015,0
404.605253,0.2942213666,-1.817635345,-2.602302157,3.187842683,0
265.2207423,2.026244411,-1.67464154,0.8453408108,2.761284445,0
292.8362535,3.144634917,-2.36674035,4.580111741,6.038841959,0
132.003999,-0.7609246315,-3.454825029,0.5286955914,3.57691785,0
401.131861,5.403209086,-1.73062936,-1.97342008,6.00700701,0
120.3594638,0.7973270573,0.8770501882,-0.1899731129,1.200432111,0
15.1,-0.713,0.242,-0.515,0.912,0
37.95638075,4.461784562,-2.502663848,-4.361486102,6.722604319,0
407.4863621,-5.270145169,1.361726332,3.796932753,6.636672889,0
220.9116859,3.82045961,-3.806140949,3.585085791,6.475759468,0
174.2339537,1.152292662,-0.563545289,-2.170324482,2.521045424,0
5.49,-2.7,2.17,-0.529,3.5,0
126.6581384,-1.993752018,-4.034592249,-3.202601874,5.523553248,0
39.4,1.77,6.46,-10.2,12.2,0
63.58275146,-4.593727568,0.4486150494,-1.771113874,4.943726609,0
552.7900741,-0.05197882354,0.06114082575,0.0802003368,0.1134552453,0
151.0455362,2.595119437,0.3543912622,3.967376751,4.753979001,0
149.1382604,-3.970774568,-1.012213987,-0.9110733819,4.197818782,0
330.9019251,-5.784278562,1.559391019,0.4879728042,6.010631938,0
307.683013,-3.343361896,0.347440677,0.374515332,3.382165804,0
56.8,-5.48,-4.25,-4.34,8.18,0
345.1264657,0.1203930008,2.854960345,3.525329586,4.537977715,0
131.6615437,1.341458859,4.036655146,3.927205794,5.789390468,0
1.9,5.9,2.29,2.02,6.64,0
20.05909371,2.567386093,1.22002827,2.268411817,3.636706271,0
78.38858258,-3.366477109,2.174595873,0.79181401,4.085217836,0
499.8436347,0.6617141926,-3.222879433,4.150560662,5.296411173,0
531.0049812,-0.3866038656,-2.115347791,-0.6568671432,2.248473542,0
59.6,-2.11,-3.17,-1.24,4.01,0
94.62013646,2.320102081,-0.9733016436,-1.879139575,3.140279493,0
458.513424,0.8246000791,0.1641197951,0.719857224,1.106840106,0
92.341469,-0.02142302871,-3.246363898,-5.694659457,6.555034999,0
188.9800924,-0.4917835808,-1.331241289,1.183327344,1.847787342,0
149.3791793,1.541000356,-2.781775132,-3.972489556,5.088578216,0
66.27982579,-4.012855517,-1.848605415,2.120765237,4.900815908,0
12.1,-1.7,-0.349,-1.22,2.12,0
215.3906411,2.546619122,0.2471493803,2.618169161,3.660759692,0
97.75256325,-0.1511512555,-2.103727035,-4.515060883,4.98340134,0
464.9583662,4.86055356,-0.3808925977,-7.275524375,8.758042876,0
40.10260337,-0.26421923,1.238871215,-0.6446426618,1.421329606,0
386.3649805,2.866916147,-0.3986098073,1.037627009,3.074860612,0
414.7142376,-0.3842760891,-2.233869245,-3.124850278,3.860379408,0
512.472718,-3.749461548,-0.619057585,0.250682268,3.808482085,0
55.8,-8.39,-9.36,-1.14,12.6,0
97.99298046,6.555570745,-0.3894725096,-1.826938557,6.816516788,0
20.9,0.252,4.02,4.64,6.14,0
247.9448186,1.486514831,0.2820084335,-4.942646129,5.169043031,0
19.27614871,-7.107615731,-1.257125638,-0.6052172256,7.243262672,0
193.5575133,4.905551392,-2.622364538,-1.310900726,5.714865786,0
211.6965677,1.369400364,-1.895161384,0.8389115779,2.484082661,0
178.6526725,1.168188757,0.3946642524,-0.8638752419,1.505558128,0
470.5399751,5.054348997,-1.512168613,-1.107217719,5.390642706,0
2.1,-0.605,1.84,4.19,4.61,0
254.6704797,1.81677785,-0.5223371829,-2.733249967,3.323277489,0
69.23404383,-5.688319906,1.599506426,-0.4083926377,5.923021924,0
459.6879681,-5.804922157,0.7773246096,-0.4905745228,5.877245797,0
153.3975345,1.295886392,2.48697109,-0.3317186835,2.823895187,0
50.4,-1.71,6.18,-2.39,6.84,0
172.2335633,-1.576438284,1.749888042,-0.05108726934,2.355817423,0
28.5,0.616,1.96,1.8,2.73,0
1.68,-0.12,9.08,-2.59,9.44,0
6.92,-5.04,0.45,10.1,11.3,0
50.6,-1.16,0.657,1.82,2.25,0
17.1,0.676,3.23,-4.58,5.64,0
409.9358083,2.242051107,2.276370024,5.737597316,6.567242695,0
497.6049412,5.420156071,-2.074623104,-0.9087754992,5.874353221,0
146.6976245,-1.002696912,0.7457661635,2.345428126,2.657555524,0
146.4769685,1.239969322,1.131564867,1.12448155,2.020500365,0
24.30506883,0.6252866238,0.3694364405,3.99169649,4.057229044,0
340.5489102,1.57716597,-0.1846939543,2.503052688,2.96425996,0
544.1463075,-0.2676124424,-0.0587526767,0.07206751764,0.2833055302,0
164.6373836,-4.518876191,-0.4422522555,-0.1718065448,4.543715063,0
508.2462802,3.991277829,7.222980126,8.011630939,11.50165079,0
405.8902075,4.060935125,2.428835587,4.640593001,6.627634555,0
292.0632989,0.1034764212,-0.9571580659,-3.465239505,3.596490478,0
54.2,-4.63,7.51,7.47,11.6,0
132.5148023,2.132276065,-0.9909128724,-2.092937753,3.147840208,0
12.3,2.81,4.13,2.55,5.61,0
112.3156361,8.765877904,-11.82826004,-12.72508609,19.45960347,0
0.0914,1.38,-0.159,6.42,6.57,0
21.60781812,-0.5760309948,1.801422039,-1.031322541,2.154195732,0
121.3923138,-5.660007688,1.537291029,0.4851398282,5.885092301,0
130.8505757,-1.760969101,-3.778748497,-1.273941353,4.359229169,0
2.5,0.629,-0.26,1.13,1.32,0
551.3444255,-0.02562893093,-0.07778653309,0.02147024497,0.08466733874,0
543.4536015,-0.1190469718,0.04307044432,0.05510883808,0.1380732729,0
518.6066032,-1.668814643,-0.5735491441,0.6014557117,1.864309499,0
181.4510034,-2.03434222,-2.016833902,-2.117652179,3.562389368,0
245.0839017,3.337299503,-4.521186426,3.501961189,6.621361404,0
49.53991296,-5.98508832,2.253577285,0.4732471763,6.412788447,0
182.4552563,-2.319764696,-0.6931369103,-2.518623823,3.493595996,0
335.7103591,0.637231316,-1.349592921,-1.946019004,2.452438535,0
278.2103548,6.636038958,-3.229026026,-1.677566171,7.568213157,0
17.5,-0.141,-4.02,10.4,11.1,0
489.453303,6.313391352,-0.9479115714,-4.714940933,7.936505195,0
174.1335707,-0.8122168458,-0.9539906292,-2.078996236,2.427348281,0
306.9301342,1.939023249,-0.2732979825,0.3644359016,1.991812359,0
151.9088306,3.320377661,0.7662774651,-3.732031583,5.05372622,0
526.2564423,-2.68439531,0.3554176679,-2.837118151,3.921930558,0
59.4,1.47,0.836,4.99,5.27,0
21.52460658,4.806370336,-2.227674412,-1.698504611,5.563150816,0
16.5,2.06,-3.3,10.7,11.4,0
338.0694038,-5.921440793,1.361905695,1.003808468,6.158399112,0
39.89366096,0.3325937194,-1.879022046,-2.426779853,3.087167453,0
1.7,4.4,6.44,5.0,9.26,0
46.6,2.22,-4.76,-3.56,6.35,0
534.7295261,-4.992501828,2.615073937,1.009598381,5.725641893,0
561.3736156,-1.824905188,1.264452199,-1.724852019,2.811446744,0
329.4162301,-5.079882619,-0.4054778007,-0.449547388,5.115829602,0
126.6022176,-3.274342532,0.450258117,-0.3337198931,3.321960318,0
418.5590685,-2.382922812,-0.6207931848,4.615172816,5.231015716,0
402.1357313,4.429781581,-2.318654456,-2.192784222,5.459617751,0
262.0887879,2.400262145,1.921269056,4.113694552,5.135661205,0
73.98194446,2.04510519,-0.6319372469,-2.484121742,3.279124998,0
38.7,-0.953,0.934,1.58,2.07,0
20.6,-7.78,-10.2,1.53,12.9,0
28.54099208,-2.489933875,-0.006880711019,0.5073598324,2.541108428,0
489.985367,3.48483411,-4.14549785,-1.795657707,5.705576903,0
177.1582232,-0.6519401331,-0.960846051,-0.4420962811,1.24245732,0
105.3450077,-2.007267272,3.897326522,0.1396817958,4.386090164,0
327.8201102,-4.835517536,0.970125436,1.171978483,5.069211652,0
140.0278163,0.8194426887,-3.205409707,0.238897351,3.317108628,0
35.9,1.89,-7.89,1.02,8.18,0
31.78800387,-0.4820963524,0.971980319,-0.04274607003,1.085812995,0
11.2,1.78,3.87,2.52,4.95,0
413.8107527,4.001195877,-2.899818137,-3.004341502,5.783129043,0
251.6991434,3.159338325,-0.03466653362,-1.428543635,3.467471318,0
281.5832415,-4.814433061,-0.3155683815,0.7591656429,4.884125467,0
170.5499186,2.419831021,1.456537034,-2.166822585,3.559803705,0
28.1,2.18,1.41,0.428,2.63,0
359.1804361,2.564984642,3.00793754,6.575950631,7.672676271,0
23.27117575,-0.5327596986,-0.1362769622,2.450379653,2.511327289,0
63.7,1.26,-3.22,1.03,3.61,0
172.1058467,0.157332201,-2.772162017,-2.38487929,3.66023017,0
88.20575875,-0.2544426124,-0.5838187551,-0.4961555439,0.807313883,0
29.4,-0.744,-0.55,-0.77,1.2,0
109.787984,1.719481936,-1.122223648,0.7366117626,2.181421769,0
320.8734966,5.246177432,-2.338930992,-0.5454650404,5.769792712,0
144.1693002,-0.9926157278,-1.681554556,-2.155831135,2.908697233,0
245.1140167,-2.078503901,-2.447882892,5.368761384,6.255869877,0
17.1280665,1.598246351,2.141090743,-0.2620488167,2.684647193,0
166.4944628,-1.995919581,2.328090547,0.8730338819,3.188399085,0
390.4507117,5.310252975,-0.4907366368,-1.047594611,5.434801153,0
27.39498817,0.323321351,1.012294898,-1.393151169,1.752183734,0
16.7,1.08,0.862,2.67,3.0,0
56.5,0.421,-2.12,0.477,2.21,0
114.9333875,1.339195695,1.546855758,-3.216699511,3.812264889,0
157.2893573,3.057002696,-4.212275392,2.189502473,5.646454687,0
396.5642605,2.58318527,0.3696685749,-1.908641117,3.233019008,0
36.93323163,0.8894892624,-1.373463594,1.431547496,2.174148483,0
358.9997411,2.044958425,-3.965066223,-3.96695926,5.969955685,0
94.60326688,-0.6620789127,0.6939101315,1.420205652,1.713722221,0
389.085454,-5.19604282,-0.3911103147,2.95699075,5.991295566,0
504.1202445,4.944035427,-0.9182740818,-1.881993747,5.369228441,0
315.0512025,-2.334965703,-0.2396406783,-3.417547275,4.145976588,0
178.6727315,0.8655889146,0.6199516243,-0.650467658,1.247674781,0
410.8995256,2.77756309,2.109664882,5.409383746,6.43637904,0
258.4448827,2.668511349,-0.7191060761,1.57036595,3.178697152,0
181.300864,-5.899341241,-0.1288303868,1.261425095,6.034071397,0
58.1,2.6,1.34,1.16,3.15,0
492.0232752,1.724369039,-3.808722494,-3.567436556,5.496036681,0
44.3,-0.264,-2.57,0.0646,2.59,0
88.03511087,-0.8502138072,0.8296020797,-1.131452601,1.640514589,0
181.652201,1.155894547,-1.89562346,1.410136161,2.630202369,0
355.8877852,-0.2640257603,-1.713411064,-2.708101677,3.215478467,0
35.7,-0.257,2.3,3.9,4.54,0
52.5,4.71,-10.6,4.56,12.5,0
32.02408625,-1.644290251,-0.075318131,0.9749982132,1.913108666,0
7.47,6.16,-3.58,5.22,8.83,0
45.51860437,-0.6056503581,-0.0482263729,0.3028775847,0.6788762557,0
305.5749531,-4.073357534,-0.01828585133,0.4127794381,4.094259743,0
113.2612495,1.987765639,-1.074024465,-2.614303567,3.455332679,0
207.7816555,4.081719638,-3.33496471,-3.362089943,6.251885604,0
35.85849771,2.68838545,-2.569379117,-1.984522773,4.215146025,0
146.0866167,-5.025786518,0.2509353063,0.03638269141,5.032178689,0
36.68248962,-0.7239064208,1.071656635,-0.2621809638,1.319555723,0
40.6,0.331,-4.46,-4.55,6.38,0
51.4,-0.0503,1.89,2.77,3.36,0
9.509391333,-2.67132386,1.283037281,-0.8865731098,3.093245497,0
138.0358901,2.549514078,3.733595713,5.817995362,7.368095345,0
184.9547707,-6.454143773,1.515607068,0.1220669125,6.630832298,0
6.49,0.745,-0.689,1.42,1.74,0
215.4207551,4.600043145,2.280294967,3.325789259,6.117271963,0
292.6957165,1.079722284,1.078809826,-8.306960353,8.446018065,0
538.2231701,0.004018791318,0.8806748772,-1.649617649,1.8699847,0
520.2028251,1.477783769,-2.495434935,-1.57548431,3.300483479,0
53.17357296,-4.416837015,-1.177871161,-0.5738681097,4.607076546,0
87.371947,-2.366386593,-4.425547028,-7.083645655,8.681203129,0
526.9893033,-0.5380789107,1.000737657,4.685896643,4.821683536,0
385.0298405,-5.975953799,1.132986033,3.843227499,7.19486475,0
389.366536,3.768465584,-2.585901302,-1.694667376,4.874434933,0
37.99637567,-0.3648661105,0.0423563531,-0.04480428994,0.3700388678,0
540.9739159,-0.211151728,-0.1090483792,0.1793491606,0.2977292775,0
5.05260425,3.594091088,-0.147254671,4.294316797,5.601815013,0
411.6423898,-0.4350170571,-1.496548361,-3.366650771,3.709883321,0
28.8,1.07,2.62,-6.45,7.04,0
27.3,4.34,-1.47,-5.6,7.24,0
133.3379574,1.529564079,-0.1796369898,1.750228935,2.331338038,0
3.2,2.8,2.62,-4.17,5.67,0
126.9590304,-6.085564535,-2.697957927,5.42731891,8.588880209,0
1.33,9.91,3.24,1.3,10.5,0
30.00650287,4.679292798,0.5321051028,-0.3763922882,4.724466963,0
357.4538015,2.874717502,-0.5224360009,-3.213123938,4.342937432,0
4.54067525,1.311453872,-0.4985573974,1.163790042,1.822876299,0
87.09111504,-1.899867223,1.249819542,-0.7741912329,2.402273177,0
375.3827275,4.102737454,0.942670712,7.553903296,8.647689732,0
173.5613917,-6.736015236,1.121878662,0.01467329532,6.828816024,0
111.2524886,-4.559368452,8.734695287,2.58375128,10.18619228,0
67.888975,3.7666892,-3.319992329,-3.341727015,6.031370991,0
17.4,2.31,-1.36,3.94,4.76,0
32.8712115,0.4241284452,-2.278353546,1.325215294,2.669639562,0
234.9954077,1.418910493,-1.418579102,-0.4405181175,2.054198109,0
95.77672988,1.416741907,0.1236259264,-1.496759738,2.064638156,0
539.3576021,-0.08162829995,-0.08231651723,0.4633889169,0.4776698406,0
35.5,-1.5,-2.28,-4.53,5.29,0
535.1310951,3.99541298,-1.256610936,3.304719987,5.335126064,0
330.1791541,0.1544863611,-0.4756272854,-6.552522007,6.571577589,0
172.5745782,-1.567134194,2.26402319,-0.5946219246,2.816963936,0
220.9016479,2.415255575,-4.379252867,3.224261715,5.950393161,0
136.6277215,-2.760634232,1.177554388,1.19406634,3.230097541,0
61.71571908,-0.2428810591,-0.9915615479,-2.612133665,2.804537002,0
135.8575703,1.268624187,-0.6633332866,1.194450575,1.864438402,0
61.76652967,0.1963562259,0.3102304584,0.02904079953,0.3682961754,0
70.35828046,3.607138565,1.792804997,-0.7410416132,4.095697872,0
529.0172206,0.9995744991,-0.5259345362,3.452481465,3.632545194,0
159.1263659,3.388339849,-0.4030914058,-5.092463488,6.129968514,0
299.1001997,-0.2590749228,2.208408421,2.849501384,3.614394238,0
61.6,3.23,2.27,0.723,4.01,0
0.865,10.9,9.17,-6.72,15.8,0
368.5665152,4.263285624,-1.526608604,-3.07096877,5.471470308,0
546.8970527,0.01548459649,0.2190703198,0.2557053186,0.3370708942,0
399.1341629,-0.880950281,1.865770939,3.480521203,4.046134259,0
489.613925,2.046482209,-1.579148468,4.000664949,4.763099763,0
10.28413775,-0.3830908585,-0.4504121912,-0.5462702751,0.8050099138,0
25.6,0.378,-1.87,-5.74,6.05,0
355.6267822,2.63537167,-1.582458577,1.779615871,3.551956029,0
45.7,-1.97,-0.44,-0.535,2.09,0
76.82266646,-3.561712716,-0.3753520685,5.335331683,6.425920231,0
96.41697771,0.7929941243,-1.488479349,-0.7095830083,1.829731811,0
224.0737436,-1.821992397,-0.7889418577,-0.8087564635,2.143868599,0
98.45463813,-3.424268065,3.020587406,5.715912917,7.315819881,0
219.8175148,-0.03594166517,1.002856395,-1.504682715,1.808613509,0
39.4,5.36,3.23,-7.25,9.58,0
18.5387,-0.5414502691,-1.089819841,0.5491856968,1.33509573,0
35.03540462,0.9888431042,-2.278183099,0.1725957727,2.489521685,0
457.710317,-3.862834382,0.1598652148,0.7670627461,3.941501187,0
448.2236342,4.243944204,-2.556151838,-5.890963351,7.697299775,0
281.0411708,-3.880671313,2.610730626,-0.6550970449,4.722782695,0
0.104,0.81,-0.681,-1.35,1.71,0
208.1932235,0.6387855059,2.210514588,-0.5927515465,2.376084187,0
139.8573093,-0.173416064,-3.17274716,-2.988310776,4.361926062,0
140.2083523,0.6182837791,2.206640954,0.9645490927,2.486341506,0
39.83180238,-0.152959909,-0.08871687949,-0.503686173,0.5338231723,0
488.5397571,4.746916432,1.344190679,6.840257058,8.43381176,0
3.23,2.36,-7.63,-5.32,9.59,0
271.464584,1.338782589,-0.6851151151,-5.100049666,5.317163542,0
103.1585412,0.6223718599,0.6207029915,-0.9366315615,1.284483405,0
79.99020079,-2.040997375,-2.318695241,2.607148621,4.042182806,0
82.423846,-2.084650494,3.418323786,0.5988902459,4.04837927,0
34.77685175,-0.5040813717,-2.496876274,0.4087057561,2.579831303,0
65.43734479,-4.614294272,-8.262331479,0.1758246052,9.465133247,0
40.2,4.48,-4.4,-2.34,6.7,0
64.29543687,7.250481336,0.7880337851,-10.03656791,12.40657778,0
303.3564702,1.168581836,-0.3125741686,2.184347129,2.496929814,0
173.1598616,1.605927254,-1.928671339,-2.030050364,3.227983884,0
0.174,1.43,1.28,-2.32,3.01,0
137.3799555,-2.172105983,-3.321391568,-0.4007313234,3.988768224,0
393.0708022,0.1854853749,-1.768906696,4.896798695,5.209805484,0
179.2229516,-4.541406097,0.1333209023,0.7186331825,4.599845373,0
556.444352,-0.8259297359,-0.2964666975,0.9194156045,1.270975014,0
135.9981073,-5.257374265,1.224065626,-0.03299583793,5.39809314,0
223.9532846,4.669688162,-3.103355621,0.2254652003,5.611384695,0
111.7238841,1.181273071,-2.664820586,-2.043593538,3.559908619,0
30.2,3.22,-1.59,6.49,7.41,0
328.4826502,-1.205967178,-1.590298816,-3.02769762,3.626342516,0
538.7452101,-1.048175386,1.277474971,0.7401638,1.81065082,0
555.0790166,-0.6155703056,0.06006888494,1.101338856,1.263124043,0
65.85129858,5.210824581,-1.900095849,-3.966596147,6.818866625,0
5.790734375,-0.2519217315,0.2760841808,-0.007728264928,0.373827179,0
166.3238128,0.4341119081,0.6465278041,-1.329356292,1.540662034,0
41.4,1.15,-1.57,1.97,2.77,0
47.6,-1.82,5.01,-4.64,7.07,0
164.4566946,1.813516858,0.05060662821,3.312124316,3.776449644,0
45.82595212,4.175304909,-3.20801698,3.551183635,6.351019543,0
298.2670141,-4.416706038,-1.268116064,0.2800961016,4.603679441,0
39.3,4.26,0.623,5.1,6.67,0
335.1180883,-1.787616032,0.02908010378,-1.138121497,2.119371905,0
62.90989912,-4.105506696,-0.3638371468,11.22497356,11.95774202,0
21.33701412,-0.5362940481,-0.9233209598,-1.175763386,1.588254526,0
33.49305112,-1.475441082,0.7341892612,-1.010950257,1.933385807,0
29.7,-4.56,-5.46,22.8,23.9,0
113.0905978,-5.10969991,2.089192465,1.016757712,5.613159055,0
527.7020859,-7.356046382,0.5762252685,-1.041891968,7.451777829,0
153.926529,0.3310401142,0.7967755187,-1.769166897,1.968347097,0
435.8558461,-2.999142743,-0.6208785541,-2.831924654,4.171348058,0
338.9628298,0.2635573983,2.972463652,3.868852921,4.886003028,0
56.0,0.555,-1.23,-3.73,3.96,0
53.43455496,3.993346574,-1.487562945,-2.20574633,4.798434875,0
41.74746467,0.2458723301,1.0055945,0.1354530895,1.044040727,0
465.8618635,5.865275363,1.360228129,-4.522944683,7.530518193,0
132.4545723,-0.6077584255,-2.189015692,-1.991713679,3.021271815,0
236.8926452,-1.18574049,-1.31476135,-2.142364997,2.779263517,0
220.5101549,-1.454047582,1.1477982,2.605722778,3.197105921,0
92.331431,0.6178127128,-2.967030419,-4.362261443,5.311712243,0
377.0993308,0.1311752665,-1.86892522,-2.725066203,3.306973577,0
288.3892547,-0.8010153347,0.3621540257,0.005225656629,0.8790952237,0
53.5,-3.06,-1.12,-2.57,4.16,0
508.1960852,7.106183748,2.810247856,3.434755046,8.378119282,0
46.12708658,0.7668553162,-1.200653375,-4.85261421,5.057420318,0
53.82311317,-0.3125395238,1.017789745,-0.07575828016,1.067387576,0
371.4475941,-7.566038607,0.7180067995,0.7964391576,7.641648337,0
524.2184882,-3.339624941,0.4415247157,-2.139214956,3.990523706,0
172.2764966,0.8131945002,0.2240942475,1.263719543,1.519371781,0
88.084045,1.111259753,-1.586928481,-0.649812843,2.043403282,0
53.87326117,-0.7752218047,0.8210484803,-0.1631607056,1.140925444,0
466.3939235,4.370252833,-2.146125342,-1.067661086,4.984462258,0
379.8097556,1.988584249,1.717339224,3.450935462,4.337358284,0
40.6163765,-0.6511821878,0.5521693848,2.009676325,2.183512813,0
92.451889,-7.110008996,-1.866867146,-5.725580703,9.317708691,0
356.7511021,-6.050726239,0.7580260205,3.48109423,7.021674196,0
506.368983,-4.80480679,2.018293221,-0.643197961,5.251036034,0
339.8562551,3.43384405,-2.634111887,-3.161312345,5.359452037,0
231.1908931,12.28504686,-2.277336861,-10.55239057,16.35425285,0
60.09963508,2.402913857,0.3173526594,-2.043487411,3.170260008,0
428.7483917,-5.394471007,-0.1417669129,-1.088360376,5.504992608,0
25.7,1.25,3.12,4.33,5.48,0
232.465756,1.208545216,-0.4132635145,5.441340533,5.589235643,0
186.781725,3.610991296,-2.802988831,-3.279689226,5.626043542,0
151.1358812,0.9977852511,-1.694409368,3.061622581,3.638699128,0
512.532952,-0.5120149469,-0.5972702748,-1.106341295,1.357527955,0
92.76785075,1.384165168,-0.892065838,0.04358631492,1.647299135,0
22.2,3.44,3.14,-1.89,5.03,0
484.5041004,6.010713742,-0.1715476593,0.8514272507,6.073140592,0
24.4,-1.28,-1.98,-4.2,4.81,0
61.6,4.27,-0.289,-2.94,5.19,0
155.433589,0.816961642,1.717828928,-1.062627657,2.178885056,0
30.41393813,0.6469374016,-1.505880956,0.3725027204,1.680762842,0
155.9442255,-2.400738108,0.4602326629,-0.2540106493,2.457616524,0
34.49602075,1.021412973,-0.2883732739,2.141047474,2.389671084,0
529.9207481,1.9180832,2.24307247,2.978725435,4.193235324,0
72.10486496,1.790909184,-0.6208003476,1.987308533,2.746296412,0
432.7237451,-5.009689718,1.615098904,5.364259613,7.51537203,0
431.4287426,2.443277771,0.7807056159,-4.040486827,4.785879368,0
351.5812427,2.728845844,-0.6898031934,4.58884105,5.383297341,0
170.5198036,2.306425443,0.6205088639,-1.199368449,2.67266052,0
254.2589092,-1.435735856,2.54512282,1.843828239,3.455240975,0
350.6376185,3.305764884,-2.303879566,0.9890020023,4.14898391,0
180.3778085,-1.742430211,-2.367052299,-3.035728186,4.225475742,0
67.899013,4.423506934,-3.053993426,-3.346732231,6.332053859,0
3.978559,1.124510202,-4.044831893,-2.829851816,5.062928949,0
55.78891025,1.59691801,-0.3616780624,0.5237889004,1.719102372,0
82.95586,-5.45673099,-0.2543791701,3.424860096,6.447502503,0
34.68408462,-0.7930245298,-1.015683286,0.3015015887,1.323406079,0
365.4344732,-1.142223757,0.6652117047,0.6170148602,1.458728577,0
440.8250448,-4.045534728,-0.6346826608,3.977294798,5.708594155,0
427.2024222,-7.066926126,1.798925716,0.1898221086,7.294766003,0
6.2,4.75,-5.62,-0.397,7.37,0
91.35772846,-0.9457204735,-0.6781916463,-1.055617138,1.571196571,0
336.1620911,-0.7072564012,0.1758795691,-1.019505903,1.253210887,0
94.95139746,2.358418885,1.406525652,-1.212616778,3.001815034,0
560.6407516,0.5887709814,-0.567468186,-1.265324019,1.506557759,0
190.4055173,3.262494904,-0.7173738384,-1.316015285,3.590319547,0
27.7,2.58,-1.94,2.42,4.03,0
19.7,-7.76,-1.09,-0.595,7.86,0
34.4,-6.52,-1.59,-2.42,7.13,0
37.43441975,4.46913919,0.2777667171,-1.721891574,4.797423271,0
213.5937945,3.402280195,-0.5419310564,-2.909415464,4.50931238,0
83.75890083,1.723560369,-1.008790003,-5.658773341,6.000836053,0
429.9731205,4.165629521,-2.386712684,-4.200423962,6.379061703,0
217.739593,-3.522204834,0.2297917745,-2.400432299,4.26858365,0
53.0,1.04,-2.8,0.251,3.0,0
243.5982321,-3.667456688,2.164567021,1.325538645,4.460116775,0
346.903284,0.06992802143,-0.4636133768,-2.203826689,2.253148767,0
516.0667085,-2.808026499,0.2281639827,-3.37883403,4.399271647,0
461.454807,3.809721199,0.2266220719,-0.2798488375,3.826702046,0
415.2462896,2.239653164,1.071515717,-2.399450697,3.452760617,0
36.53102521,-0.3497091043,0.1557307948,0.726713596,0.8213776164,0
24.85714483,1.722085701,2.764202787,2.737586262,4.254500529,0
354.2916537,-4.103800478,1.006382851,0.7443506987,4.290459505,0
88.97869275,-0.05757073514,-1.336473523,0.7258160484,1.52193456,0
511.4186171,-5.774096805,0.6393548785,-1.1655062,5.925147533,0
513.6472886,3.601220013,-1.027451538,-3.8926277,5.401573165,0
80.54674246,-0.3804707211,0.366400493,-1.199973782,1.311085188,0
409.9759633,-1.793535753,3.083601387,1.858139738,4.022194836,0
11.8588255,0.8935529311,-0.7283332747,0.009857820868,1.152824087,0
118.380808,2.687852184,0.6454538168,-1.630711847,3.209420683,0
11.3,-2.5,4.3,5.11,7.13,0
39.5,0.879,-1.17,-4.03,4.28,0
69.00785979,0.8265996075,-0.03988444269,2.53068429,2.662559043,0
535.8037215,-5.781701694,1.638678971,-0.02089838728,6.009474186,0
5.644838583,7.312791604,0.6430959271,-11.57765773,13.70885305,0
13.443545,0.4525379464,-1.294686397,0.1803094196,1.383298574,0
292.1034529,1.492428705,-0.001816876084,-3.298424875,3.620352662,0
92.10589837,-4.37064635,4.970116932,2.173897716,6.966379484,0
418.2378292,0.07564192057,0.7184606896,-1.017730688,1.2480718,0
17.9,-0.23,-0.18,-2.77,2.78,0
50.20240046,-0.1806514817,-1.972646786,-4.0207285,4.482212397,0
59.78067762,-0.4096962744,2.184857152,-1.500693744,2.682076346,0
81.09344925,3.826796238,-3.250618624,0.1268915963,5.022647943,0
3.82,3.2,1.66,1.67,3.97,0
25.2,-0.529,5.13,0.781,5.22,0
152.4447025,-3.242457665,-1.360329579,-2.854394335,4.528972874,0
59.0,3.09,1.58,1.83,3.93,0
435.8859621,-0.4659219307,-1.50349573,-3.149431388,3.520866473,0
240.9280422,-4.691117038,0.9562725051,7.611180282,8.991724053,0
504.6623509,2.404348179,-0.4817924434,-3.522728745,4.292159356,0
5.78,1.8,1.33,1.37,2.62,0
29.6,-0.213,6.72,-10.1,12.2,0
40.8949465,-0.3786627255,0.7786772168,-2.002146866,2.181356399,0
219.7873998,-1.581574185,0.3972474061,-1.086247777,1.959366387,0
15.08843962,0.1535803351,-0.8776755479,1.086100427,1.404818645,0
286.5723096,2.143001613,1.412657335,5.852748873,6.390831403,0
47.0,4.66,-6.52,-7.78,11.2,0
52.55123258,-0.5750643039,2.212157363,3.117960504,3.866007871,0
260.603118,-6.694320495,-0.1384860402,5.646156219,8.75854927,0
445.5733938,-0.6866566604,0.6172031406,-0.615683303,1.109731056,0
171.5615633,-0.4741201656,-3.208707536,1.863943977,3.740973287,0
103.0623071,4.72024962,1.317362776,-0.06876515642,4.901115159,0
83.10643,0.3320557755,-2.087233794,-2.988546419,3.660357311,0
109.3167598,4.892233774,-1.068320798,4.517340127,6.74400641,0
215.2601435,3.731522291,-0.5033585827,-0.377818351,3.784227157,0
355.2854712,-6.264182355,1.001884003,-0.3210555549,6.351915365,0
227.2960345,-6.945544361,0.6267545673,2.56410522,7.430211528,0
257.9530053,1.942347391,0.4727650733,3.854074668,4.341671539,0
18.1,0.0634,0.759,1.53,1.71,0
265.9033479,3.310391201,-1.251676033,3.850873318,5.230163296,0
182.7363263,0.8951134068,-0.5185348848,0.9910720628,1.432595641,0
10.5850315,0.2321728703,0.9314573604,-0.1846082926,0.9775465603,0
313.776323,-0.1003703803,1.079111396,3.433130105,3.600130267,0
155.3017745,-5.475290052,0.6487911151,5.846584738,8.036310358,0
44.4,-4.81,8.6,6.88,12.0,0
253.1245815,2.045542561,-0.5167720954,-2.318673752,3.134891663,0
128.7303465,1.697879398,0.1273606892,-2.20903495,2.78905909,0
283.550761,-1.821652674,-1.938883939,5.154362113,5.80044293,0
20.2,4.65,0.412,-0.403,4.69,0
107.6117141,2.369543066,-4.34781005,-2.437838691,5.519170595,0
91.53841546,-1.021381398,1.574134773,1.315280875,2.291524388,0
1.29,4.03,-2.81,-3.39,5.97,0
12.6,-0.8,-3.87,-1.73,4.32,0
13.4,-0.638,-1.73,0.00644,1.84,0
387.5495405,-3.170522879,1.36304678,0.1610416746,3.454858358,0
43.2,-0.668,-2.16,4.26,4.83,0
22.0,3.64,8.49,-16.8,19.2,0
116.798914,2.365126957,1.152982634,1.778828836,3.176070922,0
212.770658,0.9322917581,-2.118723389,2.670116994,3.533791375,0
58.0,-0.34,-1.78,-3.83,4.23,0
292.6354865,2.83381389,-1.446180299,-1.65176577,3.584727155,0
29.1,-0.334,2.86,0.631,2.95,0
342.5465702,4.032174425,-2.310588661,2.331243219,5.199225471,0
60.92404737,-0.5813680409,0.0911411351,0.8830079162,1.061130758,0
85.87692621,0.004567844868,-2.15952906,0.3769600528,2.19218738,0
18.9,4.47,-19.4,2.49,20.1,0
50.7,0.503,4.2,-1.19,4.4,0
15.56217471,0.3373451668,-0.7506594059,-0.8252093589,1.16544489,0
54.1,0.307,-1.23,-3.05,3.3,0
62.4,-0.807,3.91,3.84,5.54,0
299.3611977,-4.126174849,0.05731586963,-1.16145715,4.286908758,0
309.3795021,-3.328263801,-0.226304495,-0.5483878443,3.380722242,0
262.7212012,-4.189694322,0.6774910037,-0.3768138725,4.260812278,0
3.62,2.8,0.283,-2.44,3.72,0
93.54012963,-3.042694267,-2.986365407,-0.2514501536,4.27078376,0
495.3762898,-6.656541635,0.5749235322,0.3979068258,6.693161693,0
320.1708051,-3.657602375,-0.4211623719,-2.298039951,4.340094526,0
44.64150208,4.992251567,-0.7661516038,-4.563898582,6.807256,0
51.7,-1.75,-2.68,-2.61,4.14,0
533.5448995,3.360465002,-1.647710288,-0.4909526914,3.774746186,0
501.9919774,-4.173191725,0.1985546328,1.878087661,4.580629474,0
103.6846813,1.959966806,-1.82199956,0.6969910294,2.765311696,0
165.7415921,-4.255090166,0.1722933255,-0.989731881,4.372075767,0
7.35,-1.24,-4.15,1.52,4.59,0
218.261583,0.4718963233,0.4191985846,0.7983051503,1.017695783,0
360.4151802,0.288182947,1.072768483,-0.2916516615,1.148452141,0
42.30271212,-3.142218263,-0.02697305962,0.2619907831,3.153236801,0
112.9976559,0.9110543054,-4.95954926,-11.40452284,12.46957458,0
336.1721291,-0.1989006418,0.3641318464,-1.449383258,1.507602499,0
315.2820855,5.184889841,-0.7752577651,0.9112435359,5.32113447,0
132.0329627,6.014035546,2.716061491,-7.971472262,10.34842904,0
356.5904841,2.0653272,1.234526734,4.714922807,5.293404365,0
45.71553712,2.096129748,-0.3616999894,-2.244901625,3.092599248,0
229.7754923,1.713099115,2.232220915,5.519075173,6.19497454,0
257.2402856,7.487474248,-3.345720078,-2.102286281,8.466151491,0
347.8368663,-2.575761645,-1.28691764,-2.468504999,3.792653687,0
63.3511995,2.792841865,-2.266896511,-1.706171919,3.981181746,0
33.2021905,-0.5472527535,-0.5556515479,-0.5168546873,0.9356136953,0
389.055338,-4.080841386,-0.3227641113,5.153472751,6.581468262,0
37.9,3.24,-5.95,1.97,7.06,0
526.9591853,-0.379290753,0.3484520991,-3.936993449,3.970541242,0
524.1180962,-4.076844814,-0.1016741632,2.996800348,5.060811555,0
189.38162,8.602065234,-3.55418735,-8.091893914,12.33314725,0
472.03577,7.028350875,-1.218368392,-8.940666382,11.4375545,0
108.4040588,-0.07130050912,-0.3019765288,6.841272719,6.848305338,0
26.0,-0.586,8.22,10.8,13.6,0
415.3868316,-1.53407199,2.35419164,5.002759598,5.737874062,0
44.7062055,-0.3559341232,0.701672895,-0.1450255662,0.8000414779,0
436.7492974,-5.957695869,0.7237407254,4.507161294,7.50549423,0
87.943631,0.639637299,-0.2283209074,0.1082290016,0.6877352891,0
47.4,-0.368,0.413,-1.61,1.7,0
482.7372476,0.6808714253,-2.795883586,-2.315676323,3.693630702,0
369.469989,-1.904195479,0.5425610939,-0.2248877147,1.992713588,0
511.1074061,2.551184628,-3.87831547,-2.754968864,5.398122575,0
114.5461579,2.106752969,-1.455602941,3.875829819,4.645346573,0
474.8667341,-1.481605509,3.819162698,1.741063424,4.45111901,0
560.6507906,0.654213896,-0.3067080957,-1.580175532,1.737532845,0
144.9322109,3.108911353,-0.01019739792,0.8968713722,3.235708894,0
57.7,5.49,-0.351,-7.37,9.19,0
273.6027516,5.002244459,-0.8869837305,-1.716283509,5.362351988,0
428.6279257,-1.35547639,-2.556999099,4.157127669,5.065300692,0
15.68020137,0.4948998544,-0.1898547068,0.7129422337,0.8884015444,0
161.3147124,-0.6890025634,0.7622496106,2.979587899,3.151776174,0
25.70031108,0.1152252316,-0.781899325,0.1646330345,0.8073087665,0
128.9750113,-0.7871417923,-3.176370095,-3.411214156,4.727081679,0
149.3154017,-0.08503722668,-0.4549151319,2.153498242,2.202665155,0
97.68235625,3.071055602,-3.164579769,-3.062833539,5.369068533,0
94.12826483,-2.405397754,-2.478619805,1.276144291,3.682124216,0
519.0382852,-4.89054159,-0.5636227646,-0.8897697095,5.002675064,0
97.81229246,-7.242719157,1.256508318,0.9316573352,7.409708451,0
461.51504,1.350446615,0.3222146192,0.4991487336,1.475356831,0
551.3243475,0.002313743234,-0.003126506209,0.1358162016,0.1358718847,0
264.1165277,4.062261858,-0.8221897106,0.688054145,4.201355237,0
98.75588808,-6.508654441,0.2372786956,-0.4255919302,6.526868492,0
30.1,0.681,-4.22,4.1,5.92,0
134.5023947,-2.527811553,-1.44098841,-1.774829487,3.408269143,0
474.6157621,2.919281471,-2.00435419,-1.830212998,3.986140946,0
39.0093715,0.3941912492,0.3369931644,-0.5691200244,0.769966711,0
49.01794825,-5.262464266,0.1480275267,0.1685038912,5.26724177,0
479.4645556,-0.9684234577,-1.457233291,5.115887434,5.406817649,0
31.27125625,-3.342689466,1.263024163,0.9547229929,3.698688808,0
25.22856387,1.16605233,-1.744829908,-1.383261774,2.513468237,0
288.6703287,0.5794584864,0.3536717623,5.016850219,5.062572663,0
23.1,-0.0694,1.77,2.88,3.38,0
133.5485857,0.2909711187,1.488055573,2.051680968,2.551150402,0
217.1372976,-0.8827389443,-0.02662326822,0.864731859,1.236000821,0
472.387131,-3.697152357,-0.2155934192,-2.188214185,4.301592425,0
29.2,-1.06,-0.0236,0.285,1.1,0
0.204,-0.717,0.523,-2.5,2.66,0
3.79,0.983,-2.24,-1.98,3.14,0
172.4471466,-5.423065646,0.8784403637,-0.8098674345,5.553123781,0
116.0117565,2.371914259,-0.4823571382,1.2595458,2.728571289,0
23.16243279,0.9220500675,1.799695502,0.07811236918,2.023655546,0
38.9491935,0.8012899346,0.3285258114,-1.228439782,1.503016655,0
56.5,-6.06,-2.72,-0.163,6.64,0
170.2487716,1.925719664,0.8745886566,2.887568513,3.579295106,0
128.1425412,0.3968724534,2.329097437,-3.187559912,3.967712289,0
16.8,4.05,2.83,-6.27,7.99,0
89.57844537,0.6903086121,0.1423662525,-0.8592783071,1.111374527,0
3.343428,-0.1462283385,0.1013801944,0.3193509454,0.3655758431,0
294.0910508,-0.7940963244,-2.355003088,-2.879172496,3.803454058,0
55.22127458,-6.353834789,0.1894199663,0.1281557643,6.357949382,0
414.9150116,3.291198885,-1.055753085,0.3346741587,3.472551148,0
22.3,0.771,0.691,0.341,1.09,0
510.7761181,5.265694268,-2.733561038,3.387191455,6.831760976,0
17.5998415,0.1442642587,-1.372557276,-2.351833751,2.726875069,0
105.1502746,-2.857738357,1.899758173,-8.144405419,8.837821522,0
66.49371883,3.082332834,-1.612036133,2.909171636,4.534613081,0
44.04425088,-0.08100363459,0.4994323236,0.09925823987,0.5156029799,0
79.22173158,2.274514849,-0.1832433332,-0.1557639778,2.287194424,0
2.392576958,-3.457818511,0.8558269881,-0.6830571145,3.62705331,0
82.58785117,-3.488048909,-1.671341225,-3.556781759,5.25457545,0
392.7194492,-1.899832871,-0.6258384548,0.543409671,2.072759701,0
0.5250087916,-0.01091086786,-0.09083064795,-0.0595480442,0.1091568743,0
2.362462958,-2.263038811,1.058531097,-1.023116559,2.699740772,0
531.0953332,0.7234297997,-1.918321328,-0.6774322392,2.159217875,0
560.4399665,-0.1619297205,-2.468721346,-1.016041428,2.674536689,0
227.2759571,-7.502992759,1.255827702,5.590862024,9.440854925,0
61.2,1.05,2.89,2.3,3.84,0
106.4652948,-4.553774713,1.848312615,-2.064913364,5.330758938,0
501.4900287,0.8988117707,-0.1983890104,1.209831603,1.520168841,0
74.95561771,0.8589261585,-1.356512809,-3.125930843,3.514160609,0
119.286284,-0.9982730551,-1.011816522,0.1290726078,1.42722861,0
139.2454935,1.080703812,-5.784947484,2.071060395,6.238816336,0
422.3838247,7.492862458,-1.532456551,-1.398542887,7.774788299,0
232.566139,-4.394442764,-0.7097388366,-0.7147474153,4.508405515,0
432.35231,-1.716595166,0.5433082218,-1.221758169,2.175908043,0
36.16966721,-3.733595129,0.8016728541,-0.8904137072,3.921128475,0
108.8453648,1.658405137,-0.8666976929,0.9720234422,2.108625634,0
325.772263,-3.703042842,1.189292235,-0.2181590313,3.895450638,0
486.4918127,1.984504062,-0.1002682733,2.184612154,2.9531069,0
251.7091814,2.700926558,-0.5956469415,-0.6647085518,2.844580287,0
52.98285558,-0.1319348198,1.298708112,4.957605645,5.12658788,0
308.9880042,0.3750082523,-0.5564073005,-3.74551,3.805136717,0
74.91546671,-1.188729587,-1.298805468,-2.47344882,3.036103216,0
120.9913364,0.2754477113,0.8044955975,-0.255811007,0.8879886707,0
77.14387946,3.995237564,-2.74829953,-2.333464138,5.381461547,0
209.9499132,3.130815607,0.01387325004,-2.577508793,4.055336042,0
367.0607252,2.676607988,-1.724525598,-2.674944456,4.158551034,0
163.2822154,7.292846167,-1.40800412,-1.722495591,7.624635852,0
459.175988,-5.410402331,-0.80524638,-0.07054665685,5.470452627,0
31.68770688,-0.7399508151,0.3557422614,-0.2930180097,0.8717449853,0
219.7472468,-2.733229501,-1.430038622,-1.499481032,3.429868413,0
78.0171795,-3.345224819,-0.6433784207,-3.431937566,4.83556205,0
372.692381,0.216462754,1.884797779,1.165791983,2.226744202,0
133.0771834,-1.738831981,-1.350758271,0.9435517412,2.395490441,0
112.0448341,5.866407384,1.143189132,4.776601284,7.650982735,0
36.5,2.21,2.68,3.21,4.73,0
53.29154775,-1.417420184,-1.369809085,3.825475352,4.303454261,0
546.7263857,-0.006581041217,0.1451426567,0.139151965,0.2011789509,0
102.4765242,-2.712981763,0.4165883875,-1.157784367,2.978973073,0
253.9276452,-3.88481465,1.945929688,1.558697393,4.61605511,0
303.0854342,-0.4733443862,0.1576575986,-0.9795664966,1.09930039,0
66.04914679,2.888002376,-2.879512804,-3.917432758,5.654947491,0
359.8028272,-4.717141825,0.2556765211,-0.1059484778,4.725253703,0
502.6344734,0.06902579606,1.160158044,1.399377869,1.819062855,0
417.6355052,-5.844936408,-0.2231934839,-1.490277514,6.036060306,0
64.8,0.534,0.858,2.14,2.37,0
145.0326824,-0.8502259402,-1.324814175,-0.4218529281,1.629716737,0
30.29357712,-0.03680719927,0.143087799,3.055193567,3.058763904,0
58.3,0.692,-10.4,-0.522,10.5,0
211.2448459,-4.832535456,0.9525380346,2.007129278,5.318768239,0
462.2779916,-1.886553844,-0.4596600743,-2.887223527,3.479429908,0
39.30143496,-3.622731335,1.194577826,1.29133945,4.027251679,0
407.6871361,0.4828917199,-1.680985476,-1.8122217,2.518540068,0
265.9635779,-4.548308735,0.5167652249,3.174654522,5.570690261,0
55.36180358,1.432012934,-2.698799926,-2.279451653,3.811834456,0
32.7,-3.62,5.91,3.29,7.67,0
52.8,-9.07,-8.91,2.94,13.0,0
0.874,-0.139,2.11,0.451,2.16,0
226.3925881,-2.174832686,0.7780150196,-3.522578471,4.212334705,0
33.3,2.9,-5.03,7.33,9.35,0
399.746522,-0.1802380836,1.235164665,1.594685982,2.025127378,0
39.92206937,-0.07313375741,0.3750664321,-0.02859580815,0.3831985062,0
359.0700111,3.495802317,-0.7185320988,0.3446821799,3.585488533,0
548.0616015,-0.08461564243,0.1331823233,-0.03361739695,0.1613303058,0
30.12307213,-1.072123243,0.5844945471,0.1252116913,1.227501564,0
214.0254395,-3.214409156,-1.859631509,-0.5434133255,3.753125846,0
8.6,-2.17,-2.74,-1.2,3.69,0
8.36,4.33,-0.445,1.71,4.68,0
33.3125175,-0.465508094,0.220463419,-0.4046764398,0.6550304768,0
58.3,3.07,2.63,5.28,6.65,0
182.4840792,-1.951827482,0.4029883486,2.050298687,2.859327689,0
492.7159638,5.733342882,-3.138507035,4.012640339,7.669597741,0
30.51842646,1.928670169,-1.032810511,-2.656478656,3.441416137,0
414.3428047,2.522994032,1.116070185,-6.009578798,6.612575056,0
22.55849583,5.105645451,0.3315434133,-4.113905636,6.565192769,0
306.6390202,-4.160714352,0.1585194781,-0.2339903677,4.170302607,0
492.4750282,3.574656113,1.128081973,-2.71739875,4.629793865,0
92.94838375,-2.717208423,-1.26372422,3.13230197,4.334920547,0
387.137955,-3.148676512,0.1560564847,-3.502070532,4.712007578,0
125.2269633,4.370634656,-1.455878929,-2.04230145,5.039149329,0
408.9821307,-2.854187928,2.881236563,0.8436992781,4.142431814,0
98.54508508,2.289371454,-0.7406859563,1.369961697,2.768868432,0
442.4312517,-7.134660273,1.212471475,-0.08892387092,7.237497616,0
429.9831595,4.265335658,-1.315425594,-3.767145867,5.840789394,0
51.55642713,-0.4773527256,-0.4469094166,-2.061320688,2.162553267,0
391.0229143,2.229700618,-2.528900012,0.9162433438,3.49376616,0
158.1727273,5.955937026,-0.449649495,-6.642676717,8.93311393,0
70.35181729,3.865669112,-1.781005754,0.1298058486,4.258195479,0
218.5928462,-0.6325899424,-0.1993690038,-1.749444239,1.870955151,0
245.3950889,1.033101849,0.3001538055,-1.944732471,2.222470724,0
41.5,-0.161,7.4,-2.35,7.77,0
317.9723854,-0.9000203902,-0.05351927251,4.90367619,4.985874166,0
521.2468961,1.460413445,-3.755765432,-0.8174799246,4.1117946,0
71.1642095,0.9281055902,-0.581534248,-2.959778702,3.155923325,0
506.8809735,-7.778694239,0.175373054,1.352719866,7.897385062,0
506.18828,4.661071705,-1.166154656,-0.2963251948,4.813866922,0
410.4778996,-3.43456852,1.678271199,5.921231462,7.047966882,0
462.8602458,4.334692991,0.6996458115,-6.134967075,7.54432824,0
36.54207463,-0.1731718331,0.9044049248,-0.6240090072,1.112350661,0
550.6316415,-0.1998215783,-0.02102965727,0.05137246728,0.2073886208,0
376.8784808,1.619642483,-3.406818219,2.432397857,4.488453129,0
137.3298065,-1.068186312,-2.736279409,-1.431547496,3.267655923,0
251.0065002,1.891788856,0.7454410583,-2.283196356,3.057373554,0
28.6,4.76,1.39,6.31,8.02,0
150.8046172,-1.714857958,-0.02518805087,-0.1438993925,1.721069228,0
123.8818242,-7.011707945,1.539420438,6.531104241,9.705111344,0
451.134887,-2.996866422,0.1955130574,-3.067152877,4.292651917,0
462.2679526,-2.923631215,-0.352374119,-2.58004473,3.915152336,0
33.5,3.68,0.13,-4.17,5.57,0
64.3240655,-1.990680476,1.674443173,6.594317905,7.088836105,0
62.7,-2.72,-6.4,-4.1,8.07,0
349.6036486,3.060665392,0.1568464436,1.78283988,3.545531199,0
24.58665887,-0.5730997856,-1.356173085,0.6155667973,1.595798008,0
365.6954762,2.573721551,-1.287165123,4.675250618,5.489882059,0
57.0,-0.818,8.66,-9.62,13.0,0
410.1064663,-2.206145695,0.5585010423,-0.2589078386,2.290422561,0
140.4290073,-1.11496433,2.284417693,0.05150490671,2.542511044,0
293.3783258,1.62443603,2.2258742,5.467969923,6.123071407,0
4.226064,-0.4733419012,1.029116387,-0.1999870545,1.150272974,0
324.1159162,3.121527305,-0.9073611309,3.348954173,4.667197338,0
151.0656132,2.908115044,-0.09413578659,2.65797759,3.940918614,0
333.421584,-4.440712366,0.3389475963,1.569418409,4.722063737,0
12.49061596,1.885159868,-1.024254354,-3.520030839,4.122322382,0
238.157472,1.630791369,-0.7927022021,-0.2015085731,1.824407568,0
100.1210907,1.950539925,2.259678708,-1.684164169,3.427413429,0
234.5236077,1.566959655,-1.051991571,0.02771112442,1.887542511,0
533.2537625,-5.42187983,-0.8089890365,-0.9731140941,5.567602284,0
252.8736245,-0.9232034308,3.10449612,5.106830682,6.047306867,0
377.2900638,3.063007202,-0.5957958993,0.9187273872,3.252851961,0
65.88867379,-0.08470452011,1.171058131,-1.955878433,2.281230468,0
96.719514,-0.6527591819,1.191019941,-2.552733848,2.891552031,0
70.97058846,4.644369133,-2.688065608,-2.217831355,5.806430683,0
45.9,1.96,-0.427,-1.62,2.57,0
462.6695068,-5.251755091,3.144568843,-0.2348282737,6.125715392,0
37.4,2.88,1.11,1.33,3.36,0
256.6480256,-0.6779852396,-1.048586884,-3.074936106,3.318799556,0
70.38839346,2.772916308,1.173789512,-1.713492633,3.464520699,0
136.5201003,-5.267757166,-0.7843032615,2.86016846,6.045242823,0
156.3557965,-4.600210961,0.9195793265,1.282921945,4.863481853,0
519.9819641,-4.578712503,1.474286988,5.677870347,7.441528202,0
127.0037516,-5.926574648,1.76049036,3.851358052,7.283994248,0
537.4501518,-2.841167348,0.8310495579,-1.83895707,3.484915834,0
107.3308827,0.05889710292,1.067568846,-0.5556304979,1.204947036,0
166.4442718,8.962523274,-1.698076741,-6.104641076,10.97619837,0
136.1286053,0.4173368311,0.6864657488,-0.4867114136,0.9393046657,0
159.264982,-1.024143915,-4.255548588,-0.9300440884,4.474767765,0
348.3588693,-1.970598798,0.5996173471,-0.2582295616,2.075929453,0
42.22888767,0.3812086032,0.1216261786,-1.798840347,1.84280751,0
180.3376885,-3.223049295,-2.915722856,-1.17863393,4.503183815,0
14.8,2.69,0.0679,0.0759,2.69,0
15.53206171,-0.1773238313,-0.4733420473,-1.377381814,1.467200428,0
40.4034935,-0.3809352824,0.5507892957,1.086789814,1.276554988,0
84.12026983,0.113830086,-1.392193249,-3.033734871,3.339866254,0
246.8807573,3.52857596,2.638766563,-1.192126527,4.564548492,0
420.4764655,2.314574708,0.6885513045,4.125998847,4.780713908,0
238.9003056,-5.178741494,-0.3457443997,-0.898412552,5.267451733,0
4.888039667,0.4632472681,0.4506261992,-0.6905374575,0.9457822069,0
327.5289952,1.735457699,-0.5519982076,-1.589386212,2.417160312,0
495.8983167,-6.014553609,-0.678303182,-2.701738152,6.628298376,0
54.7,-0.985,-0.336,0.333,1.09,0
213.8648275,0.2954674083,1.286586687,4.907082778,5.081541861,0
107.2907637,1.471927051,0.6319156122,-0.690475477,1.744317336,0
336.7041699,1.632060215,-1.992390056,-2.187397183,3.379045,0
176.2717138,0.6669258159,-2.197786954,-2.318676383,3.263635658,0
46.68203975,-0.2878174961,-0.5854504207,-0.3946835482,0.7624737434,0
499.7030887,-1.43634806,0.7953081599,-5.747500745,5.977405426,0
44.71176608,3.007023035,-0.03308427706,0.01206214808,3.007229223,0
467.7592082,-8.384274577,1.708008676,-2.08689524,8.80729729,0
385.8630475,1.662256406,0.4133186245,3.893762645,4.253858975,0
6.68,-2.27,-1.86,-1.58,3.33,0
68.22022362,-5.370527828,1.904326456,-0.2694895448,5.704529167,0
340.9303722,4.110913031,-1.393329217,-1.362315878,4.549382025,0
284.213293,-4.992754428,0.3417577681,-1.620511379,5.260271122,0
337.1458629,-2.259230227,0.7245663522,0.2347908515,2.384165338,0
9.55,1.15,-3.72,1.65,4.23,0
2.65,0.341,-1.57,-3.28,3.65,0
215.7821331,-2.663062329,-0.8301925023,-6.313569692,6.902338938,0
150.1980252,0.06818131194,2.295335029,-2.6235524,3.486579812,0
3.055073958,0.7264770761,-1.188456522,1.301823508,1.906552463,0
42.5,0.671,-0.593,-3.57,3.68,0
93.83715783,-6.313106008,1.201862871,-2.564128025,6.919142603,0
59.7,3.34,-1.31,-4.51,5.76,0
330.5104241,-2.322684796,0.2652367187,-2.576808296,3.479246495,0
171.2124426,2.548330017,-0.6149730125,-0.2380605414,2.632270979,0
492.5051452,6.522303012,-2.123410663,-1.019929753,6.934664096,0
46.4,1.89,9.35,-2.44,9.85,0
415.6478384,-6.62483043,-0.2816820127,-0.2033636753,6.633933959,0
547.4190917,-0.503864513,-0.1545366472,-0.2276151484,0.5740815958,0
35.7,0.677,5.94,-10.8,12.3,0
1.39,2.53,1.91,3.17,4.48,0
34.3,2.11,2.27,3.75,4.87,0
363.8282985,-6.529489825,0.2752395505,2.95609788,7.172761592,0
271.1935484,-7.732204197,-0.3009494653,3.89871699,8.66473003,0
471.664331,1.743661342,3.171634143,6.483767522,7.425554477,0
273.9440556,-0.4663926315,0.8071576886,0.3638956189,1.00072256,0
10.0,-0.389,-1.36,-3.12,3.42,0
300.214459,1.998376581,0.05520838693,2.105940206,2.903711604,0
13.1,3.49,-14.6,-6.71,16.5,0
251.8095644,2.963267151,0.5060636508,4.102124666,5.085713264,0
185.336222,1.184935913,-1.44904178,1.812692986,2.605695888,0
174.4200717,0.8180643538,-0.6074116856,1.99201788,2.237479269,0
2.39,-3.48,6.29,10.7,12.9,0
149.6764752,-0.3451767082,-2.498298317,2.634986923,3.647437117,0
56.40071387,0.09095314711,0.5399500197,0.4329395413,0.698036636,0
23.3,-1.31,0.54,1.84,2.32,0
410.7790606,3.969470054,-3.160076829,-5.095501701,7.190752093,0
516.5787025,-2.656151505,0.2208325244,0.7017980254,2.756161876,0
119.816292,-4.758009185,-0.2951098511,-0.2321555114,4.77280184,0
194.5211814,0.7437231463,0.5096700673,-1.997247484,2.191320425,0
82.935784,-5.472804401,0.614246496,7.255212318,9.108621879,0
95.18227633,1.161202065,-0.929231033,0.4736636442,1.560838812,0
239.3319531,0.5850133413,3.556292932,3.325778149,4.904106476,0
470.9716471,5.656972983,-2.435648324,-2.375068831,6.601111879,0
11.4275415,-0.7743345628,0.4773020741,-0.327306667,0.9667165765,0
20.96591179,-0.4136514772,-0.7373265848,2.323033875,2.472093125,0
555.0589376,-1.097905955,0.01140514031,1.214539343,1.637263992,0
109.3368188,3.827650224,-1.514662158,4.281863397,5.93965166,0
74.02262737,2.16548138,0.6990176743,-1.023206021,2.494972119,0
10.27410775,-0.3557222347,-0.4545093352,-0.6464266473,0.8665935924,0
494.2117694,4.036713619,3.932698084,6.888243402,8.899947653,0
219.0847212,-0.5675664192,0.6133075062,0.7649812835,1.13290516,0
181.2905254,3.029671933,1.353237491,-2.01435059,3.881722816,0
548.2523465,-0.1610212094,-0.08033562675,0.03411784552,0.1831547711,0
358.9897031,1.845716305,-3.160703065,-3.348081184,4.960479832,0
109.3969966,-1.971070523,-1.945945768,2.253965979,3.571020382,0
16.53273637,-0.3506795228,1.166453157,0.181556046,1.231483533,0
282.6673843,-5.007298207,0.7924178812,-2.129846401,5.498836889,0
122.687261,1.261146768,1.061618574,3.3226686,3.709130867,0
330.7814631,1.183491066,1.339087083,1.314330118,2.218393332,0
43.67315487,-0.03602319729,-0.7061600482,-1.002437881,1.226719768,0
225.1679165,-5.04484201,4.758819024,-0.05046848774,6.935368517,0
556.7254496,1.184485093,0.829206881,-2.46257943,2.855676179,0
549.0755628,-0.1964676154,-0.0264640595,-0.04239523709,0.2027245088,0
54.1,2.89,2.36,1.92,4.19,0
350.6175415,1.891315232,-1.299750963,2.554957836,3.434273637,0
25.4,-1.37,-1.03,-2.44,2.98,0
527.9631049,-3.853130928,1.941320766,-0.7324143389,4.376274103,0
448.5448778,-5.696821173,1.462448715,0.234707821,5.886222514,0
338.0091728,0.1054071718,3.253096382,2.231271034,3.946177539,0
226.8744251,-5.755737718,1.153218277,-1.233310513,5.998290081,0
57.7,-0.764,-0.397,-1.72,1.92,0
30.5,-8.54,-10.1,5.85,14.5,0
414.2223407,1.01909309,1.336575119,-2.067765635,2.664702328,0
105.1444147,-1.090354276,0.6346667272,1.858688061,2.246418396,0
53.3,-5.38,8.43,6.99,12.2,0
386.0236665,-5.895032428,1.430070343,4.995671019,7.858322814,0
228.9724291,1.714380825,1.104007232,-0.6094707826,2.12823594,0
171.2807287,-0.9196926163,1.191129284,-0.436250381,1.566824136,0
86.02749621,-7.582730069,0.04061987624,-4.816402111,8.983160612,0
152.1137181,5.125787355,1.048308703,1.266101991,5.38290455,0
539.4881121,0.02107102633,0.5173477538,-0.2075153446,0.5578129657,0
74.30345438,-3.310600532,-2.072647914,4.509824116,5.966109186,0
314.268206,4.418509904,-0.7618900068,0.7591732442,4.547532316,0
206.3461896,0.1964693695,-0.8955953635,1.783412322,2.005305657,0
87.512361,-0.2753221058,-2.454481621,4.222389028,4.891712522,0
496.0589397,1.586751895,-0.8733194453,-3.00213067,3.506174124,0
296.8516038,2.238067399,0.08472250029,-2.545071949,3.390208668,0
379.2475932,4.666679769,-3.345343518,-4.007486896,7.002083586,0
154.2199796,-2.000723069,1.5834336,-0.9779336616,2.732491356,0
357.5541875,-2.237884381,1.216335315,0.1168109965,2.5497535,0
145.9654494,0.8120665723,1.085488808,0.1316760805,1.36201199,0
360.8267625,-5.496110818,-0.6104547228,-0.3477497023,5.540831972,0
249.9625162,2.929201273,0.8722040159,-3.096871351,4.351042646,0
129.6068859,4.075346465,-1.622638012,-1.720179509,4.711732215,0
180.919411,0.2964362919,1.485804394,-1.945558682,2.465905059,0
384.8491445,0.4485352349,1.745426178,3.21798239,3.688239019,0
301.3287185,-1.57803662,-2.16078475,4.587697334,5.310946916,0
364.2599585,2.407539589,3.546445051,6.678514886,7.935747001,0
235.62782,1.519658604,-0.4897700921,3.541357681,3.884643001,0
45.1,3.81,-5.23,-6.13,8.91,0
196.3280582,1.510488415,-0.781290776,0.1816835153,1.710262971,0
346.471627,-1.757928548,4.834061287,-7.39103729,9.004770599,0
511.649515,5.214727598,0.972903302,-6.999777287,8.78275622,0
42.9,-0.897,-0.392,-0.221,1.0,0
398.230681,1.931167515,-1.350212434,3.982760775,4.627619796,0
383.6344698,-0.7713313597,0.8329123347,-0.09458719164,1.139140799,0
234.4934927,1.866178052,1.353702929,1.661770502,2.841938307,0
281.0512088,-4.738788217,2.027839239,-0.9641867115,5.243844178,0
56.64663733,4.100657015,2.59888212,5.738363886,7.516541513,0
64.8,0.384,-0.049,-2.43,2.46,0
18.759356,-0.2072823331,-0.5731060714,-1.334659132,1.46721898,0
126.1666807,-1.704863458,-0.3278066039,-0.2121960407,1.749012219,0
158.562894,-1.740136933,-1.384958636,1.002397535,2.439464651,0
323.2927636,-5.846661921,-0.2642554097,-1.392356533,6.015974007,0
115.8761805,3.036670173,-0.1641097087,2.539189357,3.961790041,0
27.1,2.88,6.01,-1.74,6.89,0
377.3101408,1.099016926,-0.5765022804,1.442263688,1.902713228,0
386.2445165,2.173873158,-1.569093596,-2.64406531,3.765482782,0
100.4222387,-1.355399206,1.05767872,-0.8722092783,1.92783306,0
57.34349375,1.448186333,1.4489817,-0.9695385218,2.266450213,0
361.8205818,-6.32947295,0.053627446,1.749618632,6.567059394,0
89.56090283,-3.04941184,-1.61039058,-1.089763708,3.616608263,0
477.1857209,4.112961895,-2.183244636,-3.381317927,5.754678412,0
108.8052458,1.50907909,-0.05143912554,1.552551677,2.165729067,0
176.8272372,-3.757736236,0.8389801365,2.887779889,4.812872528,0
130.4995348,-1.023379391,-0.2114160222,-0.1290214446,1.052923856,0
20.81192558,-5.214546334,0.4416266035,1.60522895,5.473873173,0
94.89116846,-2.100277762,1.269965538,1.820128451,3.055625423,0
13.9,-1.24,5.51,5.78,8.08,0
134.2606988,-1.407419253,-1.773792629,0.3399258354,2.289698412,0
159.266902,2.684014657,1.116367077,4.354199302,5.235385534,0
74.13251246,0.8009545237,-0.4331178814,2.100997555,2.289827499,0
427.3028092,0.5133229691,0.4382341951,-0.6238255508,0.9190799738,0
534.2978393,-5.893712127,-0.1295557339,-1.832219177,6.173301745,0
57.7,6.79,-1.5,-5.99,9.18,0
93.82095762,0.2748738071,0.3681021059,1.664038053,1.726290071,0
254.6303267,0.7830474257,-2.397091346,-2.585214254,3.611446099,0
76.158918,2.221465692,1.152078069,-3.236739381,4.091292646,0
354.4020777,1.689360005,0.5386843899,-3.432126138,3.863108583,0
14.5,2.11,0.888,-2.34,3.28,0
496.7616685,3.008454434,-3.694063273,4.231748081,6.372173363,0
126.4374844,0.1936056957,-3.812139022,3.554135309,5.215531122,0
528.2542419,-5.187312343,0.07773288488,-2.437082646,5.731808054,0
512.9545928,-6.36558126,-0.1970993339,-2.798527697,6.956380539,0
28.3,2.3,-1.93,10.1,10.5,0
39.7,-2.16,-4.31,6.82,8.35,0
306.6490592,-4.053143125,0.1716384374,-0.7333016539,4.122518679,0
36.5,2.37,2.01,1.36,3.39,0
142.3346662,-2.475607319,-1.813933765,-1.221570473,3.303213848,0
423.9799833,2.641585506,-1.142835449,1.164778807,3.104956765,0
520.7047821,4.565405994,0.4276583362,-4.934981014,6.736457611,0
47.7,-0.397,-1.06,0.108,1.14,0
36.1,-2.02,-2.22,-3.01,4.25,0
23.7,2.44,-1.47,-5.36,6.07,0
348.9511438,1.189550536,-0.1218555357,-2.496575727,2.768170806,0
336.8949009,1.359075351,-0.9758731028,1.10790294,2.006704524,0
500.4560127,-5.450870326,1.257139086,0.8636360177,5.660234373,0
44.9,-0.391,-1.59,1.08,1.96,0
469.4858933,4.485165238,-2.813501832,-3.057733598,6.114101285,0
41.5,0.00326,5.59,-5.49,7.84,0
208.2936052,3.588996409,-1.051564579,-1.153496019,3.913724103,0
7.706450042,-0.9561830427,0.5386227018,-0.6577310693,1.279457145,0
171.0417926,0.7706133217,-1.98438741,-2.286427966,3.124002421,0
505.0639119,0.3142580205,-1.825191848,-2.549452098,3.151156833,0
181.903156,-4.451518021,1.225242744,-0.04863538563,4.617315007,0
205.302214,1.549168916,-0.2903095794,3.095168057,3.4733657,0
37.7,-6.51,9.05,-11.2,15.8,0
43.7,-0.0697,4.09,1.5,4.36,0
50.7,-1.2,-2.6,-1.08,3.06,0
532.4104691,3.436662408,-0.7905977891,-2.189534925,4.150874192,0
1.4,0.313,-4.11,4.72,6.27,0
547.2785427,-0.006859953403,-0.0276747255,0.06341188431,0.06952709158,0
46.7,4.54,-4.34,7.92,10.1,0
173.9586987,-2.398351421,-3.943334754,0.7581360213,4.677258679,0
86.97076104,-3.056666773,2.641533465,4.04969853,5.720224558,0
360.1541772,0.6106066042,-1.082184693,1.617729274,2.039855911,0
4.46,3.2,1.13,0.63,3.45,0
354.3217688,-1.789633906,0.2094177362,0.4017984402,1.846100564,0
303.1557022,1.476830673,-0.5284606795,-3.854789783,4.161694822,0
58.70751442,-0.06266811848,-2.223646411,1.514851023,2.691338752,0
12.8,5.88,2.39,0.874,6.41,0
50.7,2.43,-3.97,6.2,7.75,0
463.6733923,-5.939442031,2.603154681,-0.7372730827,6.526634472,0
88.83625937,-1.309952892,0.2299715763,-1.693567807,2.153377678,0
17.06431637,0.1033550915,0.2386532298,-0.7553503346,0.798869055,0
59.0,-5.6,0.484,0.559,5.65,0
489.945211,1.913718839,-1.03082392,-1.9107543,2.894114674,0
84.84449775,1.5204414,-2.721676573,6.486103485,7.196443832,0
212.730505,3.171660163,-1.208217187,0.3457791907,3.411565653,0
145.2634757,1.757146191,-2.17712611,-2.247581989,3.588741511,0
384.8290675,-2.222212674,1.987339084,0.8547016914,3.101332099,0
31.04581012,0.5118384341,-0.5445286819,4.278554458,4.343330326,0
262.0787489,2.265411319,1.561786477,3.248362768,4.257126509,0
109.7179466,4.034212765,-2.918502038,-2.277275319,5.475263432,0
219.4460988,-0.1453720137,0.06823788375,2.85536965,2.859882038,0
40.5,0.539,5.71,5.55,7.98,0
228.7415481,0.8961080182,2.80486374,3.859966323,4.854854292,0
