"Time (s)","Linear Acceleration x (m/s^2)","Linear Acceleration y (m/s^2)","Linear Acceleration z (m/s^2)","Absolute acceleration (m/s^2)"
3.442874993E-3,1.506035176E-1,-8.584110188E-1,-6.659510851E-2,8.740628154E-1
1.345487498E-2,3.963388950E-1,-1.314245918E0,-6.430153817E-1,1.515848156E0
2.346587498E-2,3.851183805E-1,-1.546234784E0,-1.411865768E0,2.128972315E0
3.347787500E-2,2.634156033E-1,-1.231030976E0,-1.952432669E0,2.323105329E0
4.348987498E-2,4.588555706E-1,-7.116576004E-1,-2.148907886E0,2.309720779E0
5.350187499E-2,8.565320161E-1,-1.335033354E-1,-2.138936629E0,2.307925505E0
6.351387498E-2,1.492217621E0,2.199930105E-1,-2.197610514E0,2.665445990E0
7.352587499E-2,1.964500737E0,1.513969848E-1,-2.236240729E0,2.980428961E0
8.353687500E-2,2.030339801E0,1.319278032E-2,-1.907562890E0,2.785901997E0
9.354887498E-2,1.597221919E0,-2.796764177E-1,-1.477079179E0,2.193421907E0
1.035608750E-1,8.097583839E-1,-6.806042075E-1,-1.347907169E0,1.713413104E0
1.135728750E-1,3.201046515E-1,-1.116063606E0,-1.194803089E0,1.666019023E0
1.235848750E-1,-9.998738766E-5,-1.335424241E0,-9.042251229E-1,1.612755712E0
1.335958750E-1,-2.422893208E-1,-1.092759821E0,-6.643220508E-1,1.301595916E0
1.436078750E-1,-5.764886856E-2,-6.158831316E-1,-8.679671234E-1,1.065834111E0
1.536205000E-1,5.114176539E-1,-2.076501229E-1,-1.560268686E0,1.655024158E0
1.636325000E-1,8.672461617E-1,2.463812023E-2,-2.482220228E0,2.629475271E0
1.736445000E-1,3.885007024E-1,2.705094454E-1,-3.238963369E0,3.273376218E0
1.836565000E-1,-2.845988962E-1,4.768024296E-1,-3.667473060E0,3.709271591E0
1.936675000E-1,-6.408890417E-1,5.277553591E-1,-3.354073995E0,3.455296926E0
2.036795000E-1,-7.172048539E-1,5.226720822E-1,-2.503423401E0,2.656068078E0
2.136915000E-1,-5.658210254E-1,3.442603764E-1,-1.634212575E0,1.763326226E0
2.237035000E-1,-3.217985898E-1,2.539445758E-1,-8.712088197E-1,9.628327932E-1
2.337155000E-1,-3.164970656E-1,2.748898870E-1,1.846948314E-1,4.580906277E-1
2.437275000E-1,-6.564885360E-1,3.749573815E-1,1.283777246E0,1.489850413E0
2.537385000E-1,-1.103789862E0,6.684691885E-1,1.862616513E0,2.265953086E0
2.637505000E-1,-1.785006419E0,1.014638096E0,1.910833238E0,2.804821215E0
2.737625000E-1,-2.253063753E0,1.269942734E0,1.803087180E0,3.152804181E0
2.837745000E-1,-2.281970779E0,1.305993450E0,1.722131310E0,3.143047212E0
2.937865000E-1,-2.031553975E0,1.222581457E0,1.678033948E0,2.904774501E0
3.037985000E-1,-1.621621035E0,1.144572876E0,1.806953943E0,2.684172945E0
3.138095000E-1,-1.346081376E0,1.230379304E0,2.168574995E0,2.833458278E0
3.238215000E-1,-1.327437529E0,1.402854916E0,2.528896211E0,3.182044682E0
3.338335000E-1,-1.530523900E0,1.351791182E0,2.449996807E0,3.189408591E0
3.438455000E-1,-1.909605322E0,1.121828084E0,1.987411882E0,2.975717851E0
3.538575000E-1,-2.383128341E0,8.148103783E-1,1.084105942E0,2.741988756E0
3.638695000E-1,-2.643194659E0,7.259715843E-1,3.621730292E-1,2.764901816E0
3.738805000E-1,-2.750961183E0,8.733699507E-1,4.547367918E-1,2.921874065E0
3.838925000E-1,-2.451430983E0,1.139235830E0,1.257857709E0,2.981539561E0
3.939045000E-1,-1.588649463E0,1.169055460E0,2.447615236E0,3.143456398E0
4.039165000E-1,-7.432606316E-1,7.566586491E-1,3.350014274E0,3.513910117E0
4.139285000E-1,1.937501219E-1,1.802904162E-1,3.713055614E0,3.722475754E0
4.239405000E-1,7.048129959E-1,-3.307989165E-1,3.095380896E0,3.191797640E0
4.339515000E-1,-7.938910872E-3,-8.245989096E-1,1.672669712E0,1.864899556E0
4.439635000E-1,-1.594833039E0,-7.984910917E-1,6.878687882E-1,1.911607679E0
4.539755000E-1,-2.275080859E0,-4.840088305E-1,-5.439957082E-2,2.326632067E0
4.639875000E-1,-1.775287908E0,1.713526547E-3,-3.967604792E-1,1.819084652E0
4.739995000E-1,-7.368308870E-1,9.910419497E-1,-3.690949631E-1,1.288920088E0
4.840115000E-1,1.768408513E-1,2.279905397E0,-6.536386031E-1,2.378336546E0
4.940225000E-1,3.386917806E-1,3.330058311E0,-1.464719335E0,3.653683512E0
5.040345000E-1,-4.680425696E-1,3.275159388E0,-1.810966303E0,3.771648421E0
5.140465000E-1,-1.265679675E0,2.389360011E0,-1.439766927E0,3.063317664E0
5.240585000E-1,-1.026158719E0,2.285887098E-1,-9.875070155E-1,1.442367713E0
5.340705000E-1,-1.485803371E0,-1.169651291E0,3.104848123E-1,1.916271541E0
5.440825000E-1,2.125248004E-1,-2.177483813E0,-1.514520655E0,2.660897473E0
5.540945000E-1,9.628653869E-1,-4.061221346E0,-3.310819218E0,5.327490260E0
5.641055000E-1,1.390957586E0,-5.436573299E0,-4.606799603E0,7.260419741E0
5.741175000E-1,1.121691040E0,-4.357204186E0,-3.694270849E0,5.821602547E0
5.841295000E-1,-4.979005723E-1,-4.168576810E0,-2.984698366E0,5.151054449E0
5.941415000E-1,-1.535280317E0,-3.731831024E0,-2.375454748E0,4.682566999E0
6.041535000E-1,-1.208946189E0,-2.783626361E0,-1.124424248E0,3.236426500E0
6.141655000E-1,-6.289265156E-1,-1.680904054E0,4.366525233E-1,1.847065896E0
6.241765000E-1,-1.020901195E-1,-5.588067786E-1,1.502992285E0,1.606758606E0
6.341885000E-1,8.248902471E-1,6.828174517E-1,2.440516132E0,2.665108362E0
6.442005000E-1,2.173906633E0,1.515550350E0,4.556020043E0,5.270681317E0
6.542125000E-1,3.805221182E0,1.840474861E0,1.336656541E0,4.433250124E0
6.642245000E-1,4.913662650E0,2.084620088E0,-1.471187525E0,5.536615779E0
6.742365000E-1,3.250221306E0,2.071618804E0,-3.144520896E0,4.974289364E0
6.842485000E-1,1.020178771E0,2.049816145E0,-4.152497844E0,4.741914097E0
6.942595000E-1,-5.647887725E-1,1.521309126E0,-3.928926630E0,4.250862534E0
7.042715000E-1,-1.921674268E0,7.687107839E-1,-1.777362354E0,2.728143178E0
7.142835000E-1,-6.282819331E-1,-5.098337893E-1,1.903013756E0,2.067880566E0
7.242955000E-1,2.161116579E0,-4.894084418E-1,4.281009704E-1,2.256815441E0
7.343075000E-1,2.522830018E0,-8.359423618E-1,-8.055948740E-1,2.777130539E0
7.443195000E-1,-4.832212105E-2,-2.244854409E0,8.074180359E-1,2.386132902E0
7.543315000E-1,-4.056030188E0,-3.020716045E0,-1.005735126E0,5.156317431E0
7.643425000E-1,-5.755830688E0,-3.413083803E0,-6.873922402E-1,6.726903898E0
7.743545000E-1,-3.452299617E0,-3.470485919E0,-1.036457566E0,5.003687585E0
7.843665000E-1,1.492688029E0,-2.234707004E0,-6.060207499E0,6.629339928E0
7.943785000E-1,4.994598640E0,1.928559657E0,-6.800086101E0,8.654855799E0
8.043905000E-1,4.088591285E0,3.848112847E0,-1.298688816E0,5.762911055E0
8.144025000E-1,-1.681859489E0,3.118611006E0,2.958626216E0,4.616043223E0
8.244145000E-1,-1.751678752E0,2.028530087E0,2.823335094E0,3.892882457E0
8.344255000E-1,-1.870713591E-1,-5.030692917E-1,2.277551892E0,2.339939535E0
8.444375000E-1,-1.468071032E-1,-1.147445028E0,1.018713605E0,1.541414879E0
8.544495000E-1,-7.649846457E-1,-2.456272039E-1,7.271538913E-2,8.067352473E-1
8.644615000E-1,-1.238901913E0,1.036179531E0,-6.856035769E-2,1.616553894E0
8.744735000E-1,-1.387866419E-1,2.105144400E0,4.513079846E-1,2.157446077E0
8.844855000E-1,1.810621025E0,2.385535640E0,1.457063575E0,3.330489911E0
8.944975000E-1,3.383704468E0,1.662469537E0,2.492051151E0,4.519245494E0
9.045085000E-1,4.154327730E0,6.375283545E-1,3.467431042E0,5.448665829E0
9.145205000E-1,4.688723187E0,-1.266696945E-1,4.398976110E0,6.430486852E0
9.245325000E-1,4.488968852E0,-7.142675051E-1,5.158817106E0,6.875639124E0
9.345445000E-1,3.987596422E0,-1.010858748E0,5.272352493E0,6.687335900E0
9.445565000E-1,3.101775995E0,-1.479107578E0,3.926218200E0,5.217658757E0
9.545685000E-1,2.124097857E0,-1.801628592E0,2.361712621E0,3.651759000E0
9.645805000E-1,6.275875032E-1,-1.862492844E0,3.491091800E-1,1.996152020E0
9.745915000E-1,-3.139919722E-1,-1.237993256E0,-5.257956648E-1,1.381187656E0
9.846035000E-1,-2.754477113E-1,-6.749920499E-1,-1.639187971E0,1.793996352E0
9.946155000E-1,2.841527537E-2,-3.519743156E-1,-2.245911439E0,2.273502043E0
1.004627500E0,3.976051095E-1,6.216525793E-2,-2.064607993E0,2.103463930E0
1.014639500E0,1.023170938E0,2.270976698E-1,-1.177506441E0,1.576379884E0
1.024651500E0,1.446876264E0,-2.780818820E-1,-5.015390754E-1,1.556381027E0
1.034663500E0,1.604604321E0,-1.036096793E0,-2.709950566E-1,1.929168192E0
1.044675500E0,1.740364097E0,-1.340270121E0,-4.253937095E-1,2.237442959E0
1.054686500E0,1.554955906E0,-1.306911755E0,-1.067828463E0,2.294812374E0
1.064698500E0,1.233411085E0,-9.829391706E-1,-1.980778216E0,2.531986307E0
1.074710500E0,9.901397243E-1,-6.237944144E-1,-2.858695546E0,3.088953928E0
1.084722500E0,9.288448244E-1,-5.293063331E-1,-3.170494228E0,3.345885765E0
1.094734500E0,6.302918404E-1,-3.730470961E-1,-2.946808408E0,3.036463689E0
1.104746500E0,4.140094730E-1,-2.690368241E-1,-2.483215424E0,2.531826119E0
1.114758500E0,-1.970654932E-1,-4.518009049E-1,-1.553350845E0,1.629680249E0
1.124769500E0,-1.069471823E0,-9.717025763E-1,-1.763584560E0,2.279957538E0
1.134781500E0,-2.679492420E0,-1.776364819E0,-2.939987631E0,4.356452556E0
1.144793500E0,-4.241457675E0,-2.370373517E0,-3.059191893E0,5.741714802E0
1.154805583E0,-3.956270257E0,-2.396256802E0,-2.891324764E0,5.454711715E0
1.164817583E0,-2.766954779E0,-1.672536396E0,-2.928147604E0,4.362048273E0
1.174829583E0,-1.437351150E0,-5.905641031E-1,-2.092461789E0,2.606365405E0
1.184841583E0,3.963169679E-1,6.650377500E-1,-1.152681502E0,1.388530516E0
1.194853583E0,8.681980884E-1,1.395353231E0,-1.471664658E0,2.206031601E0
1.204864583E0,6.719386339E-2,1.201570657E0,-1.657205581E0,2.048076511E0
1.214876583E0,-6.598445454E-1,6.893680143E-1,-9.807224911E-1,1.368371181E0
1.224888583E0,-9.778620332E-1,1.220892781E-1,-5.947583109E-1,1.151024499E0
1.234900583E0,-1.114995613E0,-3.249139863E-1,-2.700220799E-1,1.192349042E0
1.244912583E0,-9.562545249E-1,-2.059237325E-1,3.747714400E-1,1.047511781E0
1.254924583E0,-5.334800756E-1,4.674422067E-1,9.166481173E-1,1.159028463E0
1.264936583E0,-1.375952169E-1,1.233071947E0,1.036926513E0,1.616977261E0
1.274948583E0,1.114450067E-2,1.445908842E0,1.049689230E0,1.786791555E0
1.284960583E0,1.129053488E-1,1.212605522E0,1.440778495E0,1.886531856E0
1.294971583E0,1.292363590E0,2.115650677E0,1.502943168E0,2.899141184E0
1.304983583E0,9.872462296E-1,2.997934123E0,2.044298859E0,3.760508204E0
1.314995583E0,3.494296074E-2,2.919971443E0,2.325244122E0,3.732856073E0
1.325007583E0,-2.232855776E-1,2.523724349E0,2.359990032E0,3.462454908E0
1.335019583E0,-2.043186718E-1,2.471835573E0,2.467211010E0,3.498406407E0
1.345031583E0,-7.574281427E-1,2.478036545E0,2.225655515E0,3.415831521E0
1.355043583E0,-1.322996861E0,1.940458156E0,1.604951354E0,2.844568051E0
1.365055583E0,-6.818356311E-1,1.634319579E0,1.438857685E0,2.281712460E0
1.375066583E0,7.270922032E-1,1.728107164E0,1.925344273E0,2.687371952E0
1.385078583E0,2.527937560E0,1.906515069E0,3.166423981E0,4.477891116E0
1.395090583E0,4.179301773E0,2.216043862E0,4.834315934E0,6.763728576E0
1.405102583E0,3.831113822E0,1.657006191E0,5.259357056E0,6.714457482E0
1.415114583E0,2.430043184E0,5.133375871E-1,4.740190380E0,5.351451223E0
1.425126583E0,5.891116548E-1,-1.120580288E0,3.395125250E0,3.623482881E0
1.435138583E0,-1.495602574E0,-2.526838576E0,1.763456506E0,3.425130523E0
1.445150583E0,-2.435457121E0,-1.046418883E0,2.713920826E-1,2.664600819E0
1.455161583E0,-2.771484910E0,-1.875161129E-1,-1.114186943E0,2.992942271E0
1.465173583E0,-2.517726860E0,-3.246175325E-1,-1.325712308E0,2.863885160E0
1.475185583E0,-1.752158516E0,-6.669848728E-1,7.669938952E-1,2.025637658E0
1.485197583E0,-6.653973538E-1,-1.113430898E0,1.595608672E0,2.056319294E0
1.495209583E0,-2.828783530E-1,-9.549719381E-1,1.162727311E0,1.530988689E0
1.505221583E0,2.800915700E-1,-3.439238691E-1,7.166993621E-1,8.428480830E-1
1.515233583E0,4.076368850E-1,5.224662602E-2,9.405275613E-1,1.026396431E0
1.525245583E0,-1.274693012E-3,-1.477269799E-1,3.442752868E-1,3.746336324E-1
1.535257583E0,-7.065985894E-1,-8.712380558E-1,-3.915687364E-1,1.188134417E0
1.545268583E0,-1.440780249E0,-1.444275715E0,-5.109715113E-1,2.103062517E0
1.555280583E0,-1.883004584E0,-1.555592083E0,-4.364750603E-1,2.481145596E0
1.565292583E0,-2.193244983E0,-1.554953567E0,-5.515810087E-1,2.744530153E0
1.575304583E0,-2.149445245E0,-1.836654291E0,-6.368304893E-1,2.898097120E0
1.585316583E0,-2.098042957E0,-2.140663311E0,-9.147349083E-1,3.133841670E0
1.595328583E0,-2.156817999E0,-2.101617944E0,-1.452630216E0,3.343470713E0
1.605340583E0,-2.035449098E0,-1.988048644E0,-1.671388587E0,3.299837913E0
1.615352583E0,-1.420942985E0,-2.416481152E0,-8.884952357E-1,2.940728465E0
1.625364583E0,-2.725970183E0,-1.689150090E0,-7.151863950E-1,3.285670867E0
1.635375583E0,-3.011964517E0,-8.311021829E-1,-7.538493544E-1,3.214179513E0
1.645387583E0,-2.536004671E0,-5.014443505E-1,-6.895001614E-1,2.675476893E0
1.655399583E0,-2.129108044E0,-5.243788844E-1,-1.347682343E0,2.573775821E0
1.665411583E0,-1.749357700E0,-6.401145780E-1,-2.254688110E0,2.924656819E0
1.675423583E0,-1.582025591E0,-4.708850473E-1,-2.948423994E0,3.379014908E0
1.685435583E0,-1.510481399E0,-1.778506655E-1,-3.567650564E0,3.878313481E0
1.695447583E0,-1.250683175E0,9.691058278E-2,-3.771441524E0,3.974590701E0
1.705459583E0,-1.036473938E0,2.461636859E-1,-3.374721391E0,3.538872596E0
1.715471583E0,-6.841604841E-1,2.749676549E-1,-2.220913423E0,2.340115213E0
1.725482583E0,-2.666622698E-1,2.962456727E-1,-8.565653452E-1,9.447615865E-1
1.735494583E0,-1.517399240E-1,3.811449051E-1,1.360413194E-1,4.322079173E-1
1.745506583E0,-7.984840751E-2,7.581236690E-1,8.130167449E-1,1.114505941E0
1.755518583E0,4.036713034E-1,1.413660863E0,1.076699274E0,1.822270255E0
1.765530583E0,1.144155677E0,1.578199173E0,7.300106947E-1,2.081518786E0
1.775542583E0,1.593430585E0,1.352514190E0,9.211083734E-1,2.284021957E0
1.785554583E0,2.309798702E0,1.788224727E0,7.149908057E-1,3.007345935E0
1.795566583E0,2.531329238E0,2.156734968E0,7.330513930E-1,3.405363091E0
1.805578583E0,2.385306137E0,2.152739566E0,9.917133562E-1,3.362657935E0
1.815590583E0,2.068374769E0,2.119064866E0,1.134750431E0,3.171162032E0
1.825601583E0,1.109191666E0,2.321421797E0,9.314819187E-1,2.736231693E0
1.835613583E0,2.565886867E-1,2.389555308E0,4.271104521E-1,2.440949746E0
1.845625583E0,4.668183088E-2,2.452015851E0,1.182219297E-2,2.452488673E0
1.855637583E0,3.578952062E-1,2.391459162E0,-3.017636901E-1,2.436847805E0
1.865649583E0,1.120343476E0,2.242935791E0,-1.126596196E-1,2.509705691E0
1.875661583E0,2.386149890E0,2.188054410E0,6.602779703E-1,3.304127781E0
1.885673583E0,4.112477746E0,2.222948838E0,1.545358871E0,4.923627605E0
1.895685583E0,5.901804673E0,2.289706500E0,2.016147293E0,6.643711625E0
1.905697583E0,6.905042453E0,2.221206953E0,1.948554211E0,7.510674744E0
1.915709583E0,6.325979238E0,1.730909150E0,1.550544766E0,6.739306261E0
1.925720583E0,4.792235861E0,7.939723635E-1,9.001009355E-1,4.940252864E0
1.935732583E0,3.131390389E0,-2.233776712E-1,3.339922272E-1,3.157064167E0
1.945744583E0,1.950591381E0,-1.062058430E0,2.805654868E-2,2.221162311E0
1.955756583E0,1.117359642E0,-1.658458055E0,6.461758018E-3,1.999754346E0
1.965768583E0,2.761908925E-1,-2.018751204E0,-2.968134373E-2,2.037773004E0
1.975780583E0,-4.827461243E-1,-2.395734646E0,-2.501697595E-1,2.456658955E0
1.985792583E0,-9.255581045E-1,-2.682770954E0,-5.581132257E-1,2.892301535E0
1.995804583E0,-1.069428261E0,-2.756654617E0,-9.764475918E-1,3.113883649E0
2.005816583E0,-9.329431379E-1,-2.640717779E0,-1.539023120E0,3.195679184E0
2.015828583E0,-7.388676184E-1,-2.456216490E0,-1.918493675E0,3.203052105E0
2.025839583E0,-5.539663804E-1,-2.245802681E0,-1.964448405E0,3.034726671E0
2.035851583E0,-6.269033790E-1,-2.215567898E0,-1.891730384E0,2.979998793E0
2.045863583E0,-8.661755365E-1,-2.326001337E0,-1.719022345E0,3.019201898E0
2.055875583E0,-1.194924712E0,-2.437867928E0,-1.357467951E0,3.035418313E0
2.065887583E0,-1.792790233E0,-2.517723352E0,-1.201457513E0,3.316101303E0
2.075899583E0,-2.404973246E0,-2.652460157E0,-1.220671172E0,3.782787241E0
2.085911583E0,-2.769992115E0,-2.719067545E0,-1.243985775E0,4.075988867E0
2.095923583E0,-2.781018210E0,-2.652776492E0,-1.194770345E0,4.024768512E0
2.105935583E0,-2.625913798E0,-2.438124620E0,-1.083841794E0,3.743606279E0
2.115947583E0,-2.563304152E0,-2.183169646E0,-9.654573114E-1,3.502694063E0
2.125959583E0,-2.803801886E0,-2.003892844E0,-9.054927993E-1,3.563258166E0
2.135970583E0,-3.028409227E0,-1.809502745E0,-8.759085193E-1,3.634938564E0
2.145982583E0,-3.041898168E0,-1.594985359E0,-8.039917137E-1,3.527538156E0
2.155994500E0,-2.715848653E0,-1.301027702E0,-6.808807808E-1,3.087410828E0
2.166006500E0,-2.214430030E0,-9.047642362E-1,-6.515230805E-1,2.479270257E0
2.176018500E0,-1.415003968E0,-3.108333063E-1,-6.012697703E-1,1.568559502E0
2.186030500E0,-6.338843697E-1,2.283448809E-1,-5.630476910E-1,8.780509559E-1
2.196042500E0,-1.102814108E-1,5.137077159E-1,-6.330593276E-1,8.226917522E-1
2.206054500E0,4.076462406E-1,8.147235471E-1,-4.741074479E-1,1.026999410E0
2.216066500E0,7.955698228E-1,1.145284190E0,-2.902820975E-1,1.424384398E0
2.226078500E0,9.613839948E-1,1.422331699E0,-1.964934893E-1,1.727974635E0
2.236090500E0,1.239756483E0,1.644638745E0,-4.297761977E-2,2.060019373E0
2.246101500E0,1.691214741E0,1.870024350E0,3.012368560E-1,2.539279822E0
2.256113500E0,2.051172845E0,2.167412569E0,9.011930493E-1,3.117232137E0
2.266125500E0,2.064184070E0,2.252161528E0,1.331893984E0,3.332720961E0
2.276137500E0,1.770987135E0,2.091810994E0,1.400853707E0,3.078061042E0
2.286149500E0,1.456244965E0,1.960935690E0,1.372185101E0,2.801572796E0
2.296161500E0,1.331849545E0,1.998272501E0,1.165398611E0,2.669282698E0
2.306173500E0,1.455881268E0,2.215311205E0,9.649933349E-1,2.821064718E0
2.316185500E0,1.838901960E0,2.584105037E0,7.886277160E-1,3.268194140E0
2.326197500E0,1.938295856E0,2.893727970E0,5.648948264E-1,3.528421538E0
2.336209500E0,1.437132756E0,2.955112624E0,3.392732862E-1,3.303505342E0
2.346220500E0,6.737319750E-1,2.763796406E0,1.581721535E-1,2.849123335E0
2.356232500E0,3.837527633E-1,2.411212226E0,2.240240809E-1,2.451815117E0
2.366244500E0,7.929093397E-1,2.189153686E0,7.352819596E-1,2.441667185E0
2.376256500E0,1.702941332E0,2.190292139E0,1.564733620E0,3.185244125E0
2.386268500E0,2.840824116E0,2.269168739E0,2.476597545E0,4.399198089E0
2.396280500E0,3.672504004E0,2.291512704E0,3.066866656E0,5.305090689E0
2.406292500E0,3.695492333E0,2.088017321E0,3.088329738E0,5.249215226E0
2.416304500E0,2.601996932E0,1.571130474E0,2.575645285E0,3.984066721E0
2.426316500E0,8.200866133E-1,7.455433846E-1,1.710321396E0,2.038032450E0
2.436328500E0,-8.411172938E-1,1.123343682E-1,9.911034916E-1,1.304754170E0
2.446340500E0,-1.940106153E0,-2.313292998E-1,6.737926398E-1,2.066765989E0
2.456351500E0,-2.135481509E0,-3.000563031E-1,6.502061413E-1,2.252350569E0
2.466363500E0,-1.627246787E0,-2.583989847E-1,8.735354269E-1,1.864877015E0
2.476375500E0,-7.842730021E-1,-1.859122217E-1,1.097093923E0,1.361345868E0
2.486387500E0,-3.044996023E-2,-1.873635006E-1,1.153125890E0,1.168645199E0
2.496399500E0,6.294913566E-1,-2.602589840E-1,1.127429132E0,1.317228361E0
2.506411500E0,1.074815885E0,-3.659678721E-1,1.009556281E0,1.519330627E0
2.516423500E0,1.043477148E0,-5.579863411E-1,8.024765539E-1,1.429741912E0
2.526435500E0,6.072543955E-1,-9.324484634E-1,4.746885149E-1,1.209771559E0
2.536447500E0,-1.581689376E-1,-1.429999153E0,9.193445608E-2,1.441654235E0
2.546459500E0,-9.997528392E-1,-1.937477245E0,-2.636306347E-1,2.196093105E0
2.556471500E0,-1.668471996E0,-2.323613334E0,-4.576751639E-1,2.896971571E0
2.566483500E0,-2.084168683E0,-2.544229950E0,-6.780811340E-1,3.358073728E0
2.576494500E0,-2.511336438E0,-2.683373217E0,-9.270409584E-1,3.790343977E0
2.586506500E0,-3.020372813E0,-2.808332893E0,-1.148100062E0,4.281065209E0
2.596518500E0,-3.307914321E0,-2.860347385E0,-1.355743607E0,4.578419492E0
2.606530500E0,-3.300782472E0,-2.771825218E0,-1.500921786E0,4.564093138E0
2.616542500E0,-3.095021877E0,-2.563959625E0,-1.548268299E0,4.306992466E0
2.626554500E0,-2.895434187E0,-2.341258476E0,-1.526109252E0,4.024181884E0
2.636566500E0,-2.790929241E0,-2.180155406E0,-1.477744008E0,3.837458921E0
2.646578500E0,-2.572283721E0,-2.014444730E0,-1.394155867E0,3.552224893E0
2.656590500E0,-2.358431164E0,-1.812485409E0,-1.315576159E0,3.252390128E0
2.666602500E0,-2.386297240E0,-1.636129877E0,-1.427021897E0,3.226100895E0
2.676614500E0,-2.537024426E0,-1.503372939E0,-1.640179074E0,3.374434845E0
2.686626500E0,-2.545757242E0,-1.353997044E0,-1.717818988E0,3.356350698E0
2.696637500E0,-2.421948883E0,-1.157782028E0,-1.648138596E0,3.150024833E0
2.706649500E0,-2.174854905E0,-8.970476657E-1,-1.644377375E0,2.870307531E0
2.716661500E0,-1.734095297E0,-6.378014195E-1,-1.558860384E0,2.417420701E0
2.726673500E0,-1.092272748E0,-3.469258296E-1,-1.477396098E0,1.869790501E0
2.736685500E0,-3.116565943E-1,4.570476115E-2,-1.239163283E0,1.278571234E0
2.746697500E0,2.442481381E-1,4.536398542E-1,-6.391822395E-1,8.209751552E-1
2.756709500E0,4.425634736E-1,7.160693246E-1,5.585231155E-2,8.436451781E-1
2.766721500E0,3.135674644E-1,8.351583964E-1,6.832717073E-1,1.123687825E0
2.776733500E0,1.457067668E-1,9.168714809E-1,1.437880615E0,1.711544460E0
2.786745500E0,3.452330607E-1,1.076638463E0,2.313343869E0,2.574858462E0
2.796757500E0,8.448636049E-1,1.275101148E0,2.793796715E0,3.185118135E0
2.806769500E0,1.421231253E0,1.463199643E0,2.831514180E0,3.489745553E0
2.816780500E0,2.174505242E0,1.732108414E0,2.524209668E0,3.755037556E0
2.826792500E0,2.878785410E0,2.124347826E0,2.075565090E0,4.136209565E0
2.836804500E0,3.181526754E0,2.529954557E0,1.643433634E0,4.384479064E0
2.846816500E0,2.862809647E0,2.730046277E0,1.172566128E0,4.125983892E0
2.856828500E0,2.036716189E0,2.616813192E0,7.012119882E-1,3.389339518E0
2.866840500E0,1.316518146E0,2.334932374E0,2.304105560E-1,2.690393697E0
2.876852500E0,1.204949178E0,2.183922182E0,5.916841373E-2,2.494978862E0
2.886864500E0,1.628161876E0,2.258235031E0,2.674528134E-1,2.796795945E0
2.896876500E0,2.275572610E0,2.243374332E0,5.837284157E-1,3.248337723E0
2.906888500E0,3.005187594E0,2.006429951E0,6.766082203E-1,3.676236161E0
2.916900500E0,3.767141774E0,1.749574047E0,6.290298651E-1,4.200957637E0
2.926912500E0,4.463068610E0,1.615203862E0,5.718495047E-1,4.780677441E0
2.936923500E0,4.826112290E0,1.423765436E0,5.254945332E-1,5.059111815E0
2.946935500E0,4.547438085E0,9.843150204E-1,2.877017212E-1,4.661635065E0
2.956947500E0,3.576140136E0,3.050398850E-1,1.674350202E-3,3.589126692E0
2.966959500E0,2.508861312E0,-3.304442829E-1,-1.074133515E-1,2.532807954E0
2.976971500E0,1.745970408E0,-7.962814289E-1,-5.058835566E-2,1.919644748E0
2.986983500E0,1.287935786E0,-1.126768396E0,4.040192127E-2,1.711729513E0
2.996995500E0,9.712716365E-1,-1.372080728E0,7.202571005E-2,1.682605663E0
3.007007500E0,6.873887318E-1,-1.602223043E0,-5.708198100E-2,1.744385365E0
3.017019500E0,3.936187702E-1,-1.775822783E0,-3.165787804E-1,1.846267699E0
3.027031500E0,1.339842689E-1,-1.857798407E0,-5.540529191E-1,1.943281077E0
3.037043500E0,-1.316167313E-1,-1.877652043E0,-8.516721028E-1,2.065973265E0
3.047055500E0,-4.907012612E-1,-1.946819927E0,-1.218599649E0,2.348591207E0
3.057066500E0,-9.385541260E-1,-2.004782206E0,-1.555560215E0,2.705513468E0
3.067078500E0,-1.339358540E0,-2.024571522E0,-1.681295671E0,2.952884400E0
3.077090500E0,-1.628114514E0,-1.997878983E0,-1.661937733E0,3.066645452E0
3.087102500E0,-1.822291190E0,-1.978843957E0,-1.734997084E0,3.201059742E0
3.097114500E0,-2.050959422E0,-2.008794565E0,-1.944355910E0,3.467305879E0
3.107126500E0,-2.334638844E0,-2.064979291E0,-2.160672483E0,3.792516787E0
3.117138500E0,-2.604787808E0,-2.033532965E0,-2.300527503E0,4.026487630E0
3.127150500E0,-2.680953054E0,-1.942909893E0,-2.278189239E0,4.019024053E0
3.137162500E0,-2.641479086E0,-1.773082777E0,-2.161992200E0,3.846484703E0
3.147174500E0,-2.678135866E0,-1.612890118E0,-2.034759419E0,3.730157120E0
3.157186333E0,-2.660594219E0,-1.501336353E0,-1.901113411E0,3.598194637E0
3.167198333E0,-2.536909820E0,-1.343861480E0,-1.655671418E0,3.314079504E0
3.177210333E0,-2.450006163E0,-1.140808146E0,-1.512356601E0,3.096965597E0
3.187221333E0,-2.447774280E0,-9.382149875E-1,-1.426115432E0,2.984233824E0
3.197233333E0,-2.435018579E0,-8.042161006E-1,-1.174320293E0,2.820479954E0
3.207245333E0,-2.293240557E0,-6.482281744E-1,-8.650490704E-1,2.535243955E0
3.217257333E0,-2.043245190E0,-4.587123138E-1,-7.438061768E-1,2.222277103E0
3.227269333E0,-1.825046398E0,-2.079024303E-1,-8.126273203E-1,2.008576844E0
3.237281333E0,-1.500050551E0,4.910667121E-2,-8.948439963E-1,1.747371997E0
3.247293333E0,-1.057559583E0,3.464574677E-1,-8.158748639E-1,1.379897402E0
3.257305333E0,-5.187445074E-1,7.091836435E-1,-5.829106826E-1,1.054429783E0
3.267317333E0,-1.133775115E-2,1.015909281E0,-3.760350233E-1,1.083329382E0
3.277329333E0,1.657217860E-1,1.202425520E0,-5.318802774E-2,1.214956710E0
3.287341333E0,1.256227505E-1,1.354668889E0,4.114562863E-1,1.421339210E0
3.297353333E0,2.543831170E-1,1.507370680E0,9.877739409E-1,1.820047938E0
3.307364333E0,7.761149669E-1,1.779903554E0,1.527414058E0,2.470506994E0
3.317376333E0,1.557650303E0,2.208385763E0,2.029562121E0,3.379698884E0
3.327388333E0,2.396439820E0,2.715414789E0,2.561521921E0,4.435966167E0
3.337400333E0,3.009941965E0,3.229285058E0,2.830151778E0,5.243833684E0
3.347412333E0,2.902497624E0,3.529709736E0,2.707039238E0,5.311440926E0
3.357424333E0,2.031099354E0,3.515352482E0,2.366245675E0,4.699168677E0
3.367436333E0,9.624177825E-1,3.322293209E0,1.916628706E0,3.954408394E0
3.377448333E0,5.504902107E-1,3.178982631E0,1.572784651E0,3.589236910E0
3.387460333E0,1.197769382E0,3.199527408E0,1.665636681E0,3.800785798E0
3.397472333E0,2.661170170E0,3.168988570E0,2.316327118E0,4.742329232E0
3.407484333E0,4.293009945E0,2.943062097E0,3.101660221E0,6.059030039E0
3.417496333E0,5.428850881E0,2.710283858E0,3.824246559E0,7.172372148E0
3.427507333E0,5.640729418E0,2.370619100E0,4.198880005E0,7.420798918E0
3.437519333E0,4.522927727E0,1.682074374E0,3.852523694E0,6.174802688E0
3.447531333E0,2.361583983E0,6.298486215E-1,2.832750866E0,3.741425619E0
3.457543333E0,5.178118765E-2,-4.294727272E-1,1.600123308E0,1.657565297E0
3.467555333E0,-1.837419106E0,-1.189171051E0,7.263993081E-1,2.306055662E0
3.477567333E0,-2.899885088E0,-1.649875512E0,3.210711962E-1,3.351791974E0
3.487579333E0,-3.153092330E0,-1.714362114E0,2.804377252E-1,3.599954724E0
3.497591333E0,-2.669694241E0,-1.449254034E0,4.570221761E-1,3.071884416E0
3.507603333E0,-1.755946342E0,-1.055670347E0,7.063103217E-1,2.167178283E0
3.517615333E0,-8.864682984E-1,-7.560286117E-1,7.314223588E-1,1.375639478E0
3.527627333E0,-3.133148646E-1,-6.596232283E-1,3.998641813E-1,8.325625329E-1
3.537639333E0,-1.136979389E-1,-6.490497082E-1,-1.191346800E-1,6.696161715E-1
3.547651333E0,-2.346347308E-1,-7.135234469E-1,-6.047134879E-1,9.642860409E-1
3.557662333E0,-5.458750033E-1,-8.900450402E-1,-9.579458320E-1,1.416975621E0
3.567674333E0,-9.585381550E-1,-1.103195931E0,-1.253435460E0,1.925340777E0
3.577686333E0,-1.509540582E0,-1.302076693E0,-1.493669777E0,2.491017038E0
3.587698333E0,-2.066342277E0,-1.570418283E0,-1.575817017E0,3.036310798E0
3.597710333E0,-2.537240773E0,-1.828641266E0,-1.404416123E0,3.428396749E0
3.607722333E0,-2.869543886E0,-2.063881769E0,-9.907001799E-1,3.670882307E0
3.617734333E0,-2.956113667E0,-2.241805524E0,-4.819234210E-1,3.741196360E0
3.627746333E0,-2.842346147E0,-2.298789564E0,-1.710620481E-1,3.659593871E0
3.637758333E0,-2.702591845E0,-2.261756809E0,-2.111192760E-1,3.530455763E0
3.647770333E0,-2.608557508E0,-2.155763746E0,-4.440103671E-1,3.413068239E0
3.657782333E0,-2.538944651E0,-1.982391463E0,-7.214689359E-1,3.301004890E0
3.667794333E0,-2.604913523E0,-1.799100548E0,-1.037601281E0,3.331509217E0
3.677806333E0,-2.675897552E0,-1.633702698E0,-1.422715861E0,3.442895966E0
3.687817333E0,-2.638080100E0,-1.437988204E0,-1.747824121E0,3.475941002E0
3.697829333E0,-2.619929758E0,-1.197395745E0,-1.803272536E0,3.398467352E0
3.707841333E0,-2.586643898E0,-9.351919770E-1,-1.677436363E0,3.221661596E0
3.717853333E0,-2.367422428E0,-7.370660913E-1,-1.527593275E0,2.912300910E0
3.727865333E0,-1.854164947E0,-5.616718411E-1,-1.257509946E0,2.309704347E0
3.737877333E0,-1.226892609E0,-3.619467419E-1,-8.149394555E-1,1.516706047E0
3.747889333E0,-5.581225812E-1,-1.420440710E-1,-3.533655144E-1,6.756807830E-1
3.757901333E0,3.928919613E-2,2.428763813E-1,5.455656856E-2,2.520099139E-1
3.767913333E0,5.510135365E-1,5.764448315E-1,3.910733311E-1,8.881682900E-1
3.777925333E0,1.033494197E0,7.669892174E-1,8.359156108E-1,1.534645765E0
3.787937333E0,1.580728678E0,9.636989075E-1,1.341307563E0,2.286159381E0
3.797949333E0,2.150731047E0,1.185141150E0,1.735748744E0,3.007162664E0
3.807960333E0,2.633053249E0,1.386632693E0,1.797523554E0,3.476609061E0
3.817972333E0,3.196313778E0,1.658230013E0,1.668860836E0,3.968783823E0
3.827984333E0,3.642583802E0,2.038927022E0,1.492640374E0,4.433239836E0
3.837996333E0,3.804068695E0,2.416239662E0,1.149672525E0,4.650903101E0
3.848008333E0,3.626245512E0,2.622053466E0,7.321053135E-1,4.534401734E0
3.858020333E0,2.938938641E0,2.638285337E0,1.984501138E-1,3.954401637E0
3.868032333E0,2.123736792E0,2.513367761E0,-4.287489881E-1,3.318297931E0
3.878044333E0,1.702812694E0,2.358919407E0,-8.929838508E-1,3.043269951E0
3.888056333E0,1.697273042E0,2.231765270E0,-1.111334671E0,3.016053174E0
3.898068333E0,2.009264097E0,2.147361297E0,-1.143133584E0,3.155163568E0
3.908080333E0,2.817506005E0,1.979871313E0,-9.305862714E-1,3.567102650E0
3.918092333E0,3.781652225E0,1.736809575E0,-4.848283178E-1,4.189565556E0
3.928104333E0,4.561109460E0,1.413907616E0,-3.968402937E-2,4.775398316E0
3.938116333E0,4.829408365E0,1.032178574E0,1.460809886E-1,4.940639374E0
3.948127333E0,4.541019596E0,5.726634371E-1,1.232981899E-1,4.578646616E0
3.958139333E0,3.712819387E0,-1.107614672E-1,2.877444059E-2,3.714582597E0
3.968151333E0,2.617578008E0,-8.615264153E-1,6.440708041E-3,2.755718395E0
3.978163333E0,1.436379635E0,-1.536861697E0,7.094134390E-2,2.104795241E0
3.988175333E0,4.077666932E-1,-2.110862392E0,2.351294053E-1,2.162706534E0
3.998187333E0,-2.720943332E-1,-2.531646157E0,3.181771168E-1,2.566028891E0
4.008199333E0,-6.294644594E-1,-2.768970022E0,1.577923769E-1,2.843996998E0
4.018211333E0,-6.640548331E-1,-2.795042172E0,-1.342345297E-1,2.875977829E0
4.028223333E0,-5.409025311E-1,-2.682597291E0,-4.433855921E-1,2.772272454E0
4.038235333E0,-3.919254166E-1,-2.490626185E0,-9.207423377E-1,2.684136878E0
4.048247333E0,-2.755137849E-1,-2.287443042E0,-1.485928355E0,2.741584687E0
4.058259333E0,-2.288588512E-1,-2.007045663E0,-1.856786546E0,2.743768384E0
4.068270333E0,-6.358162898E-1,-1.903517202E0,-2.012710592E0,2.842295554E0
4.078282333E0,-1.201937862E0,-2.025152736E0,-2.106911429E0,3.159900947E0
4.088294333E0,-1.673255019E0,-2.188316365E0,-1.963615469E0,3.382942001E0
4.098306333E0,-1.932559737E0,-2.271918685E0,-1.659751459E0,3.413381982E0
4.108318333E0,-1.956143897E0,-2.216542044E0,-1.432787252E0,3.285184452E0
4.118330333E0,-2.122067412E0,-2.046921335E0,-1.132324421E0,3.158356478E0
4.128342333E0,-2.326999456E0,-2.010193219E0,-9.514922601E-1,3.218872593E0
4.138354333E0,-2.567767916E0,-1.966461893E0,-9.033275753E-1,3.358035908E0
4.148366208E0,-2.812318355E0,-1.871901307E0,-9.308498347E-1,3.504230365E0
4.158378208E0,-2.913147157E0,-1.716388174E0,-9.668069950E-1,3.516693119E0
4.168390208E0,-2.804270248E0,-1.455616974E0,-9.322806484E-1,3.294222155E0
4.178402208E0,-2.587146174E0,-1.107530472E0,-8.659615284E-1,2.944458938E0
4.188414208E0,-2.245447170E0,-7.323035342E-1,-9.757016332E-1,2.555444215E0
4.198425208E0,-1.992186134E0,-4.461688668E-1,-1.101942288E0,2.319945917E0
4.208437208E0,-1.862179141E0,-1.706276000E-1,-1.081018173E0,2.159959542E0
4.218449208E0,-1.671435365E0,1.170828921E-1,-9.779207978E-1,1.940034451E0
4.228461208E0,-1.316117027E0,4.555840534E-1,-8.388710859E-1,1.625861481E0
4.238473208E0,-8.618269622E-1,7.917445743E-1,-6.628315955E-1,1.344972456E0
4.248485208E0,-5.347290409E-1,1.076072452E0,-4.070568413E-1,1.268685281E0
4.258497208E0,-2.535674304E-1,1.294894558E0,1.283534002E-1,1.325716015E0
4.268509208E0,4.406520188E-2,1.406569360E0,8.889445943E-1,1.664512420E0
4.278521208E0,4.709289014E-2,1.478867843E0,1.630706292E0,2.201924351E0
4.288533208E0,-1.845854884E-1,1.473694811E0,2.329985922E0,2.763092940E0
4.298545208E0,-3.427649510E-1,1.515524037E0,2.885402412E0,3.277170730E0
4.308557208E0,-4.165649986E-1,1.684253047E0,3.338122206E0,3.762086467E0
4.318569208E0,-2.658424902E-1,2.032262365E0,3.362005743E0,3.937492244E0
4.328580208E0,1.918085539E-1,2.534531758E0,3.043634791E0,3.965394620E0
4.338592208E0,9.289828187E-1,3.193587806E0,2.731255774E0,4.303692630E0
4.348604208E0,1.404204746E0,3.875161482E0,2.410830110E0,4.775015110E0
4.358616208E0,1.322740753E0,4.188052424E0,2.068716831E0,4.854793047E0
4.368628208E0,9.455169904E-1,4.193313164E0,1.660686429E0,4.608227108E0
4.378640208E0,8.758772367E-1,4.204588934E0,1.458956611E0,4.535888384E0
4.388652208E0,1.957348423E0,4.344396445E0,1.938720363E0,5.144281288E0
4.398664208E0,3.900009810E0,4.456567091E0,2.669734294E0,6.496040945E0
4.408676208E0,5.857253568E0,4.475071775E0,3.162811571E0,8.021038822E0
4.418688208E0,6.862453088E0,4.314383272E0,3.196376928E0,8.713437374E0
4.428700208E0,6.009563010E0,3.591652799E0,2.618469123E0,7.474703871E0
4.438712208E0,3.706728342E0,2.228740506E0,1.767575285E0,4.672412828E0
4.448724208E0,1.236356912E0,8.062117553E-1,8.930464160E-1,1.725134114E0
4.458736208E0,-7.906862283E-1,-2.535715234E-1,4.180490220E-1,9.296495113E-1
4.468747208E0,-2.005911303E0,-9.644777566E-1,3.207272337E-1,2.248724851E0
4.478759208E0,-2.394040123E0,-1.314345320E0,5.125439738E-1,2.778782657E0
4.488771208E0,-2.006826392E0,-1.369619635E0,9.049978325E-1,2.592726594E0
4.498783208E0,-1.165364113E0,-1.249207338E0,1.236475318E0,2.108901065E0
4.508795208E0,-5.308301175E-1,-1.162680241E0,1.184631273E0,1.742686779E0
4.518807208E0,-1.767782861E-1,-1.237978930E0,8.550664115E-1,1.514919457E0
4.528819208E0,-1.566328740E-1,-1.445910596E0,3.797227161E-1,1.503123631E0
4.538831208E0,-4.875455189E-1,-1.716302220E0,-6.129168391E-2,1.785259257E0
4.548843208E0,-9.997475767E-1,-2.006518829E0,-4.129369475E-1,2.279502128E0
4.558855208E0,-1.490456439E0,-2.242772069E0,-6.318011530E-1,2.765982583E0
4.568867208E0,-1.926212000E0,-2.477309736E0,-7.267194432E-1,3.221098779E0
4.578879208E0,-2.288045890E0,-2.721557874E0,-7.176679534E-1,3.627268745E0
4.588890208E0,-2.422717792E0,-2.879316922E0,-6.477782312E-1,3.818330011E0
4.598902208E0,-2.315762277E0,-2.904953454E0,-5.429994889E-1,3.754511678E0
4.608914208E0,-2.144039494E0,-2.789344645E0,-4.012600578E-1,3.540954467E0
4.618926208E0,-2.166049583E0,-2.727119161E0,-5.075906512E-1,3.519459899E0
4.628938208E0,-2.326207743E0,-2.824673522E0,-7.652104944E-1,3.738391375E0
4.638950208E0,-2.451663263E0,-2.913140725E0,-9.759359604E-1,3.930584262E0
4.648962208E0,-2.456008914E0,-2.841929240E0,-1.190909429E0,3.940406941E0
4.658974208E0,-2.428027064E0,-2.614890043E0,-1.388300612E0,3.828882859E0
4.668986208E0,-2.376594955E0,-2.418007275E0,-1.513399744E0,3.712861638E0
4.678998208E0,-2.430928452E0,-2.297544692E0,-1.569824790E0,3.694925523E0
4.689010208E0,-2.560419136E0,-2.190683318E0,-1.600712707E0,3.730565737E0
4.699022208E0,-2.771871995E0,-2.049059077E0,-1.701233653E0,3.843971046E0
4.709034208E0,-2.872596717E0,-1.812666088E0,-1.868514599E0,3.876714724E0
4.719046208E0,-2.459395621E0,-1.431411256E0,-1.883374421E0,3.412427906E0
4.729057208E0,-1.696763164E0,-8.168069100E-1,-1.647851205E0,2.502317398E0
4.739069208E0,-8.415763003E-1,-1.197153085E-1,-9.872810206E-1,1.302807061E0
4.749081208E0,-5.226416767E-2,3.830972904E-1,-1.837519678E-1,4.280886156E-1
4.759093208E0,6.572141755E-1,6.773876542E-1,4.502133858E-1,1.045694314E0
4.769105208E0,1.279741498E0,1.062832602E0,9.837481329E-1,1.932643741E0
4.779117208E0,1.796530697E0,1.547962636E0,1.477465680E0,2.794032158E0
4.789129208E0,2.194858814E0,1.825934590E0,1.932991554E0,3.447883219E0
4.799141208E0,2.429970678E0,1.871984337E0,2.089970144E0,3.711745958E0
4.809153208E0,2.521922822E0,1.950037065E0,1.888975907E0,3.705532249E0
4.819165208E0,2.586417611E0,2.226496929E0,1.557378992E0,3.751302968E0
4.829177208E0,2.430169483E0,2.655613561E0,1.102463275E0,3.764761928E0
4.839189208E0,1.837937170E0,2.914152879E0,6.103741774E-1,3.498979376E0
4.849201208E0,1.199532318E0,3.004202923E0,9.861796975E-2,3.236331023E0
4.859212208E0,8.296339470E-1,3.025172208E0,-3.850262868E-1,3.160412096E0
4.869224208E0,8.809245533E-1,2.874832107E0,-6.842742124E-1,3.083653501E0
4.879236208E0,1.376143958E0,2.722362451E0,-6.829530340E-1,3.125932558E0
4.889248208E0,2.703216913E0,2.644600915E0,-1.302369346E-1,3.783947322E0
4.899260208E0,4.543471334E0,2.649668112E0,6.868923032E-1,5.304308994E0
4.909272208E0,6.107897975E0,2.683477882E0,1.415927829E0,6.819994342E0
4.919284208E0,6.885810961E0,2.517180730E0,1.727202015E0,7.532185487E0
4.929296208E0,6.310635560E0,1.850549614E0,1.500543179E0,6.745389898E0
4.939308208E0,4.421121270E0,7.185830426E-1,1.089015556E0,4.609623602E0
4.949320208E0,2.447063844E0,-4.372027463E-1,7.286382070E-1,2.590401771E0
4.959332208E0,1.010894709E0,-1.338916490E0,6.246311510E-1,1.790187017E0
4.969344208E0,1.559048957E-1,-1.989309304E0,6.748876771E-1,2.106449909E0
4.979356208E0,-2.725153327E-1,-2.358196106E0,6.523881760E-1,2.461902478E0
4.989367208E0,-2.216024566E-1,-2.514308578E0,5.739550871E-1,2.588489852E0
4.999379208E0,1.797293758E-1,-2.481810338E0,2.635129595E-1,2.502223867E0
5.009391208E0,7.138152230E-1,-2.219086168E0,-3.986350965E-1,2.364907088E0
5.019403208E0,1.031556430E0,-1.957760067E0,-1.231676801E0,2.532579888E0
5.029415208E0,1.049690984E0,-1.857689064E0,-1.921970429E0,2.871729471E0
5.039427208E0,7.354814959E-1,-1.917537655E0,-2.319620270E0,3.098148138E0
5.049439208E0,1.627630949E-1,-2.124016289E0,-2.497202548E0,3.282370727E0
5.059451208E0,-4.412741625E-1,-2.359161481E0,-2.595574935E0,3.535162659E0
5.069463208E0,-1.074405411E0,-2.579023806E0,-2.618352179E0,3.829031067E0
5.079475208E0,-1.694390364E0,-2.798178619E0,-2.558149247E0,4.152696697E0
5.089487208E0,-2.072639143E0,-2.970812398E0,-2.512847651E0,4.408623667E0
5.099499208E0,-2.171922526E0,-3.001265282E0,-2.473433032E0,4.454515879E0
5.109511208E0,-2.211416375E0,-2.903156020E0,-2.328900386E0,4.329255625E0
5.119522208E0,-2.423528216E0,-2.781342731E0,-2.117936354E0,4.253823080E0
5.129534208E0,-2.643790491E0,-2.747427126E0,-2.083420240E0,4.344953839E0
5.139546208E0,-2.696899581E0,-2.592418608E0,-2.100854006E0,4.290394987E0
5.149558458E0,-2.688299496E0,-2.323075390E0,-1.939247782E0,4.047754366E0
5.159570458E0,-2.571595504E0,-2.006574962E0,-1.737230282E0,3.695594075E0
5.169582458E0,-2.408687398E0,-1.716260705E0,-1.543559098E0,3.336150548E0
5.179594458E0,-2.176625442E0,-1.436395422E0,-1.410388761E0,2.964814763E0
5.189606458E0,-1.921009147E0,-1.084302993E0,-1.442822097E0,2.635853700E0
5.199618458E0,-1.828375803E0,-7.464923877E-1,-1.500193223E0,2.480078359E0
5.209630458E0,-1.683712179E0,-4.647846472E-1,-1.488266072E0,2.294743422E0
5.219642458E0,-1.516459592E0,-1.711275369E-1,-1.404196852E0,2.073813668E0
5.229654458E0,-1.320483143E0,1.859461355E-1,-1.240820969E0,1.821507171E0
5.239666458E0,-1.110398532E0,5.790719855E-1,-9.175845489E-1,1.552504643E0
5.249677458E0,-7.847062808E-1,1.045157638E0,-3.769039196E-1,1.360211381E0
5.259689458E0,-2.385909569E-1,1.525945530E0,4.396214470E-1,1.605833871E0
5.269701458E0,4.793097156E-1,2.127160921E0,1.134786683E0,2.458107444E0
5.279713458E0,1.022020206E0,2.723712573E0,1.603603570E0,3.321848867E0
5.289725458E0,1.395284234E0,3.204039119E0,2.052758026E0,4.052961915E0
5.299737458E0,1.675494502E0,3.629280801E0,2.455218371E0,4.691168107E0
5.309749458E0,1.791738319E0,3.915098550E0,2.717798699E0,5.091635555E0
5.319761458E0,1.603221163E0,4.141333755E0,2.775372139E0,5.236759864E0
5.329773458E0,1.034795203E0,4.293783531E0,2.696715978E0,5.174906298E0
5.339785458E0,3.467083132E-1,4.283595343E0,2.415610209E0,4.929966369E0
5.349797458E0,-2.138736069E-1,4.247132106E0,1.898448250E0,4.657035409E0
5.359809458E0,-9.833847284E-3,4.347529383E0,1.609890204E0,4.636038709E0
5.369821458E0,1.326021041E0,4.563990383E0,2.000546190E0,5.156600147E0
5.379832458E0,3.525655276E0,4.846471125E0,2.692597200E0,6.570282123E0
5.389844458E0,5.855183069E0,4.982614186E0,3.517330595E0,8.454657143E0
5.399856458E0,7.254783717E0,4.763812546E0,4.305447557E0,9.688275152E0
5.409868458E0,6.790803062E0,3.863264737E0,4.385424603E0,8.959451412E0
5.419880458E0,4.568829539E0,2.262191257E0,3.798852979E0,6.357908193E0
5.429892458E0,1.855807430E0,5.129212654E-1,2.723221407E0,3.335122827E0
5.439904458E0,-7.001818550E-1,-8.370259970E-1,1.660346121E0,1.986860939E0
5.449916458E0,-2.585132977E0,-1.822599338E0,8.226374611E-1,3.268258443E0
5.459928458E0,-3.570293505E0,-2.381732903E0,2.460370937E-1,4.298858172E0
5.469940458E0,-3.641102117E0,-2.498711130E0,5.076523393E-2,4.416306041E0
5.479952458E0,-2.887042848E0,-2.277403373E0,1.077869886E-1,3.678749864E0
5.489964458E0,-1.754634227E0,-1.927827001E0,2.659746373E-1,2.620305464E0
5.499976458E0,-8.997484946E-1,-1.729694098E0,2.227932420E-1,1.962403082E0
5.509987458E0,-2.983582717E-1,-1.725233842E0,2.081170231E-2,1.750966189E0
5.519999458E0,-1.623187065E-3,-1.765204239E0,-1.345441398E-1,1.770325045E0
5.530011458E0,-1.712667006E-1,-1.900618152E0,-3.187229544E-1,1.934752171E0
5.540023458E0,-7.646058923E-1,-2.129691011E0,-6.681642562E-1,2.359374800E0
5.550035458E0,-1.336192857E0,-2.416888118E0,-9.230642670E-1,2.911839138E0
5.560047458E0,-1.796240675E0,-2.621926582E0,-1.073615452E0,3.354643007E0
5.570059458E0,-2.181820693E0,-2.754318069E0,-1.146454510E0,3.696074608E0
5.580071458E0,-2.459978004E0,-2.837998157E0,-1.205342111E0,3.944435945E0
5.590083458E0,-2.617106137E0,-2.898985201E0,-1.250907416E0,4.100991233E0
5.600095458E0,-2.696927648E0,-2.888848468E0,-1.250079450E0,4.145064878E0
5.610107458E0,-2.770460477E0,-2.886372172E0,-1.269889525E0,4.197524863E0
5.620119458E0,-2.696550502E0,-2.810002273E0,-1.287455437E0,4.101833601E0
5.630131458E0,-2.505007412E0,-2.561107938E0,-1.318741988E0,3.817514431E0
5.640142458E0,-2.425328574E0,-2.293347561E0,-1.386757970E0,3.614520631E0
5.650154458E0,-2.399009086E0,-2.090925726E0,-1.425544159E0,3.487031852E0
5.660166458E0,-2.399617197E0,-1.904911762E0,-1.434723703E0,3.383087882E0
5.670178458E0,-2.388953630E0,-1.713897260E0,-1.488031599E0,3.295266500E0
5.680190458E0,-2.337188230E0,-1.505876716E0,-1.488175440E0,3.153534469E0
5.690202458E0,-2.175811509E0,-1.250121258E0,-1.383995307E0,2.865728859E0
5.700214458E0,-1.829366321E0,-9.060167098E-1,-1.302992367E0,2.421825040E0
5.710226458E0,-1.266251387E0,-5.222569299E-1,-1.144379772E0,1.784866924E0
5.720238458E0,-5.401254362E-1,-1.529959059E-1,-8.475913310E-1,1.016638726E0
5.730250458E0,3.270219076E-1,2.718013877E-1,-5.657549518E-1,7.077414697E-1
5.740262458E0,1.201806300E0,7.813324374E-1,-1.495255834E-1,1.441241361E0
5.750274458E0,1.608819287E0,1.163449734E0,2.688011813E-1,2.003539083E0
5.760286458E0,1.573892114E0,1.297929847E0,5.686807524E-1,2.117818706E0
5.770297458E0,1.579613029E0,1.296691407E0,9.448150322E-1,2.251502026E0
5.780309458E0,1.799250237E0,1.334367941E0,1.366522657E0,2.623970920E0
5.790321458E0,2.142146750E0,1.430718945E0,1.747588186E0,3.112846586E0
5.800333458E0,2.452644426E0,1.545437808E0,1.969811763E0,3.504853932E0
5.810345458E0,2.679776595E0,1.640765550E0,1.744539448E0,3.593985541E0
5.820357458E0,2.509232025E0,1.842330183E0,1.235166273E0,3.349038904E0
5.830369458E0,1.928822781E0,1.998677128E0,5.214991307E-1,2.826133211E0
5.840381458E0,1.107524625E0,2.062871954E0,-1.878631452E-1,2.348902735E0
5.850393458E0,5.435443032E-1,1.984622176E0,-7.265231229E-1,2.182201054E0
5.860405458E0,4.618288797E-1,1.936635246E0,-1.047278277E0,2.249585246E0
5.870417458E0,7.575728613E-1,1.987045847E0,-1.163777909E0,2.424179626E0
5.880429458E0,1.928214671E0,2.107124852E0,-7.643269801E-1,2.956718230E0
5.890441458E0,3.791524664E0,2.337516258E0,1.043213439E-1,4.455392741E0
5.900452458E0,5.588383974E0,2.488614743E0,8.265302449E-1,6.173037423E0
5.910464458E0,6.747748259E0,2.459718388E0,1.113146431E0,7.267834346E0
5.920476458E0,6.985327063E0,2.164024107E0,1.126719865E0,7.399141313E0
5.930488458E0,5.830380934E0,1.357880765E0,9.751629585E-1,6.065321492E0
5.940500458E0,3.938891455E0,2.628645033E-1,7.524276039E-1,4.018720062E0
5.950512458E0,2.261877261E0,-7.274941993E-1,5.274896032E-1,2.433840964E0
5.960524458E0,9.024130708E-1,-1.501921660E0,4.107774246E-1,1.799682226E0
5.970536458E0,7.009700596E-2,-1.973424758E0,4.095404461E-1,2.016690914E0
5.980548458E0,-2.333828419E-1,-2.230364862E0,1.918120623E-1,2.250730290E0
5.990560458E0,-2.242658633E-1,-2.282679901E0,-2.741873440E-1,2.310000304E0
6.000572458E0,-1.219518685E-1,-2.169642112E0,-8.783225423E-1,2.343857854E0
6.010584458E0,1.160438418E-1,-2.013302184E0,-1.556710363E0,2.547586899E0
6.020595458E0,3.153181207E-1,-1.825529963E0,-2.159367677E0,2.845145678E0
6.030607458E0,2.243471396E-1,-1.692328051E0,-2.539924060E0,3.060313726E0
6.040619458E0,-9.396943331E-2,-1.693748340E0,-2.785845964E0,3.261679234E0
6.050631458E0,-4.616639882E-1,-1.777525492E0,-2.856859813E0,3.396230043E0
6.060643458E0,-9.465016615E-1,-1.890354534E0,-2.755389279E0,3.472963539E0
6.070655458E0,-1.320327607E0,-1.998221045E0,-2.532450734E0,3.485607415E0
6.080667458E0,-1.635940427E0,-2.128922102E0,-2.361052617E0,3.575357305E0
6.090679458E0,-1.942173729E0,-2.248081926E0,-2.196189641E0,3.694476969E0
6.100691458E0,-2.166842465E0,-2.306483915E0,-1.972171699E0,3.728878589E0
6.110703458E0,-2.330585554E0,-2.268271776E0,-1.789247990E0,3.711885537E0
6.120715458E0,-2.234602924E0,-2.130927697E0,-1.538248364E0,3.449711743E0
6.130727458E0,-2.115788671E0,-1.905055604E0,-1.223498885E0,3.098830114E0
6.140739458E0,-2.143077627E0,-1.701484791E0,-1.100502119E0,2.949396061E0
6.150750708E0,-2.179168981E0,-1.493768887E0,-1.070853227E0,2.850762980E0
6.160762708E0,-2.209322487E0,-1.270390046E0,-1.170671046E0,2.804544066E0
6.170774708E0,-2.152734888E0,-1.070863752E0,-1.246556357E0,2.708305637E0
6.180786708E0,-1.963340065E0,-8.256455612E-1,-1.158659403E0,2.424641502E0
6.190798708E0,-1.578828333E0,-4.223268449E-1,-9.552947044E-1,1.893052255E0
6.200810708E0,-1.054868109E0,-2.474717081E-2,-7.934826592E-1,1.320217361E0
6.210822708E0,-6.810889417E-1,3.862822688E-1,-7.127272023E-1,1.058808860E0
6.220834708E0,-3.629343367E-1,7.618512690E-1,-5.694259800E-1,1.018029781E0
6.230846708E0,-7.668506384E-2,1.105421382E0,-2.284023298E-1,1.131372907E0
6.240858708E0,1.065274984E-1,1.473694811E0,1.754500911E-1,1.487920441E0
6.250870708E0,3.146796048E-1,1.820250512E0,5.944054314E-1,1.940529051E0
6.260882708E0,5.054239655E-1,2.091726210E0,1.068827460E0,2.402740947E0
6.270893708E0,6.344275761E-1,2.325685587E0,1.700188756E0,2.949907389E0
6.280905708E0,8.275172549E-1,2.555284111E0,2.320072845E0,3.549225225E0
6.290917708E0,1.204486663E0,2.800605798E0,2.882573236E0,4.195641717E0
6.300929708E0,1.708697332E0,3.074165443E0,3.155623297E0,4.725261700E0
6.310941708E0,2.017299925E0,3.315940209E0,2.976404675E0,4.891210816E0
6.320953708E0,2.011791263E0,3.511482210E0,2.557903371E0,4.787554810E0
6.330965708E0,1.642471767E0,3.558909561E0,1.883919966E0,4.348874016E0
6.340977708E0,1.100003352E0,3.374379036E0,1.293438309E0,3.777489102E0
6.350989708E0,7.355265194E-1,3.219634228E0,9.240249646E-1,3.429411897E0
6.361001708E0,7.097186637E-1,3.140679860E0,7.182582298E-1,3.299009768E0
6.371013708E0,1.199655694E0,3.154500924E0,9.270725334E-1,3.499930477E0
6.381025708E0,2.155103595E0,3.027267850E0,1.531706499E0,4.019321702E0
6.391037708E0,2.892867844E0,2.718619063E0,2.084829419E0,4.483981231E0
6.401048708E0,3.173010285E0,2.388488191E0,2.541487606E0,4.715085297E0
6.411060708E0,2.413635312E0,1.743975922E0,2.636180924E0,3.977001044E0
6.421072708E0,9.101501065E-1,7.739152443E-1,2.352791525E0,2.638739468E0
6.431084708E0,-3.318528771E-1,-5.708402753E-2,2.021655516E0,2.049506268E0
6.441096708E0,-1.134746922E0,-5.191584903E-1,1.830868763E0,2.215684216E0
6.451108708E0,-1.472719495E0,-7.683662367E-1,1.776371836E0,2.432033364E0
6.461120708E0,-1.243722650E0,-8.768583995E-1,1.867570274E0,2.409054879E0
6.471132708E0,-5.413428265E-1,-8.494291109E-1,1.876077388E0,2.129377429E0
6.481144708E0,1.792826486E-1,-7.559631228E-1,1.710691232E0,1.878852576E0
6.491156708E0,7.446142620E-1,-6.894872975E-1,1.416505533E0,1.742507119E0
6.501168708E0,1.134345803E0,-7.102759033E-1,1.125959142E0,1.749004359E0
6.511180708E0,1.141102846E0,-8.579333013E-1,7.582020217E-1,1.616488651E0
6.521191708E0,6.564388347E-1,-1.168688840E0,3.355945104E-1,1.381799270E0
6.531203708E0,-7.296623468E-2,-1.616637599E0,-1.034566869E-1,1.621587026E0
6.541215708E0,-7.924152499E-1,-2.091691711E0,-5.233676085E-1,2.297174307E0
6.551227708E0,-1.495987905E0,-2.495957676E0,-9.341207671E-1,3.056201260E0
6.561239708E0,-2.041396886E0,-2.774428983E0,-1.244019396E0,3.662286401E0
6.571251708E0,-2.418079196E0,-2.984389048E0,-1.383966948E0,4.082774730E0
6.581263708E0,-2.658113245E0,-3.080779229E0,-1.462751893E0,4.323934526E0
6.591275708E0,-2.767460856E0,-3.110891805E0,-1.546587663E0,4.441668696E0
6.601287708E0,-2.745493451E0,-3.070075901E0,-1.606413742E0,4.420821806E0
6.611299708E0,-2.640223104E0,-2.957856722E0,-1.612272360E0,4.280083713E0
6.621311708E0,-2.447636871E0,-2.791522148E0,-1.701616938E0,4.083995881E0
6.631323708E0,-2.360763618E0,-2.590394302E0,-1.758360658E0,3.921119700E0
6.641335708E0,-2.362597890E0,-2.452894102E0,-1.796799815E0,3.850590583E0
6.651346708E0,-2.363043448E0,-2.367926458E0,-1.835165589E0,3.815610408E0
6.661358708E0,-2.297309634E0,-2.224895961E0,-1.761711697E0,3.651221946E0
6.671370708E0,-2.222468197E0,-2.009949390E0,-1.664855639E0,3.427973999E0
6.681382708E0,-2.266543339E0,-1.861568692E0,-1.584559774E0,3.333689605E0
6.691394708E0,-2.170353134E0,-1.697700473E0,-1.419223319E0,3.099486159E0
6.701406708E0,-1.685569839E0,-1.368791669E0,-1.165699743E0,2.464465907E0
6.711418708E0,-9.986675960E-1,-9.173129457E-1,-8.528772140E-1,1.601936188E0
6.721430708E0,-4.291821206E-1,-5.012437910E-1,-6.010551775E-1,8.925861062E-1
6.731442708E0,2.800465465E-1,-3.375714540E-2,-2.718961126E-1,3.917819662E-1
6.741454708E0,9.616313320E-1,4.796523625E-1,2.830271646E-1,1.111263058E0
6.751466708E0,1.247845522E0,9.125404483E-1,7.756511365E-1,1.729590472E0
6.761478708E0,1.282093833E0,1.185501339E0,1.065868184E0,2.045789091E0
6.771489708E0,1.458428900E0,1.398172174E0,1.290553877E0,2.397379735E0
6.781501708E0,1.713194425E0,1.498811526E0,1.598233195E0,2.781334297E0
6.791513708E0,1.872309442E0,1.515169696E0,1.676362521E0,2.934531165E0
6.801525708E0,1.987969707E0,1.586608053E0,1.443762914E0,2.924688021E0
6.811537708E0,2.015748659E0,1.836313398E0,9.721498883E-1,2.894886000E0
6.821549708E0,2.040101727E0,2.195545278E0,5.409966713E-1,3.045506776E0
6.831561708E0,1.934644854E0,2.442179080E0,3.386566973E-1,3.133971558E0
6.841573708E0,1.347775022E0,2.495712678E0,-5.922293901E-2,2.837003108E0
6.851585708E0,7.810757446E-1,2.389945902E0,-4.671524772E-1,2.557372122E0
6.861597708E0,5.679429799E-1,2.235961232E0,-5.907740182E-1,2.381406265E0
6.871609708E0,8.100522065E-1,2.127841537E0,-4.789350553E-1,2.326644144E0
6.881621708E0,1.916179347E0,2.144597318E0,-5.262494087E-4,2.875941798E0
6.891632708E0,3.597473702E0,2.253872423E0,4.613359594E-1,4.270197748E0
6.901644708E0,5.097337727E0,2.307132956E0,8.376604199E-1,5.657507345E0
6.911656708E0,5.963792176E0,2.210728742E0,1.082911940E0,6.451886310E0
6.921668708E0,5.867798436E0,1.826379563E0,1.147694997E0,6.251713733E0
6.931680708E0,4.650863051E0,1.014705339E0,9.533433424E-1,4.854793257E0
6.941692708E0,2.909580356E0,7.888478637E-3,7.049794954E-1,2.993779578E0
6.951704708E0,1.527960480E0,-8.269722944E-1,5.528266118E-1,1.823228913E0
6.961716708E0,6.202907628E-1,-1.342203795E0,5.325326805E-1,1.571579687E0
6.971728708E0,4.382727867E-1,-1.601614932E0,6.409213476E-1,1.779897076E0
6.981740708E0,5.495780450E-1,-1.659380745E0,6.210713661E-1,1.855076852E0
6.991752708E0,5.627559149E-1,-1.678788239E0,1.402903448E-1,1.776149079E0
7.001764708E0,5.648369390E-1,-1.625637633E0,-6.089332773E-1,1.825524094E0
7.011775708E0,5.654058731E-1,-1.548298851E0,-1.330623969E0,2.118365709E0
7.021787708E0,4.514225900E-1,-1.494315602E0,-1.921395210E0,2.475584986E0
7.031799708E0,-5.891654491E-3,-1.537528279E0,-2.289467348E0,2.757841305E0
7.041811708E0,-5.868148685E-1,-1.697227433E0,-2.421734290E0,3.014917847E0
7.051823708E0,-1.139083802E0,-1.828132558E0,-2.410139846E0,3.232391473E0
7.061835708E0,-1.548567823E0,-1.957035597E0,-2.375981289E0,3.445770990E0
7.071847708E0,-1.838476283E0,-2.062198355E0,-2.342791178E0,3.622337312E0
7.081859708E0,-2.019382119E0,-2.120381659E0,-2.332305951E0,3.743470792E0
7.091871708E0,-2.121501986E0,-2.114121630E0,-2.274591593E0,3.760857330E0
7.101883708E0,-2.088163501E0,-2.064523793E0,-2.110445047E0,3.616166976E0
7.111895708E0,-1.955245180E0,-1.932320586E0,-1.827390108E0,3.300939437E0
7.121907708E0,-1.979259109E0,-1.822722715E0,-1.602153022E0,3.131561755E0
7.131919708E0,-2.194900914E0,-1.749660586E0,-1.592778620E0,3.227358970E0
7.141930708E0,-2.398533123E0,-1.656830775E0,-1.618909388E0,3.334504006E0
7.151942125E0,-2.472040225E0,-1.495034224E0,-1.572458084E0,3.289184494E0
7.161954125E0,-2.380890904E0,-1.260720506E0,-1.447417424E0,3.058279727E0
7.171966125E0,-2.248194777E0,-1.012938311E0,-1.351496775E0,2.811933020E0
7.181978125E0,-2.193863618E0,-7.844911033E-1,-1.262674645E0,2.650058703E0
7.191990125E0,-1.989673001E0,-5.668559825E-1,-1.149338064E0,2.366664814E0
7.202002125E0,-1.514287351E0,-2.197980058E-1,-9.493102254E-1,1.800712984E0
7.212014125E0,-9.674329394E-1,2.153687400E-1,-6.776098484E-1,1.200610384E0
7.222026125E0,-3.742639017E-1,6.054458517E-1,-4.151172280E-1,8.239905706E-1
7.232038125E0,1.376808786E-1,9.985091364E-1,-7.084018707E-2,1.010442899E0
7.242050125E0,5.548767918E-1,1.445239921E0,2.984009564E-1,1.576594372E0
7.252062125E0,8.100118607E-1,1.780784730E0,7.049466048E-1,2.079486279E0
7.262073125E0,9.774123824E-1,1.971305142E0,1.101937318E0,2.460821973E0
7.272085125E0,1.001973612E0,2.137369575E0,1.441941506E0,2.766133606E0
7.282097125E0,8.502102989E-1,2.269192128E0,1.619110679E0,2.914379841E0
7.292109125E0,7.498410881E-1,2.469261044E0,1.745418431E0,3.115444953E0
7.302121125E0,8.894024312E-1,2.790581916E0,1.921505283E0,3.502936863E0
7.312133125E0,1.060981958E0,3.169448746E0,1.960501826E0,3.874874898E0
7.322145125E0,8.525708199E-1,3.446999701E0,1.678153085E0,3.927452319E0
7.332157125E0,5.225358421E-1,3.563231238E0,1.258565076E0,3.814924195E0
7.342169125E0,2.665897644E-1,3.657707040E0,8.928914648E-1,3.774539186E0
7.352181125E0,4.488732040E-2,3.665977927E0,6.213385838E-1,3.718530714E0
7.362193125E0,5.355184150E-1,3.717787766E0,7.357101220E-1,3.827531218E0
7.372205125E0,2.106600357E0,3.851640472E0,1.387557577E0,4.604151976E0
7.382216125E0,4.042711108E0,3.898975437E0,2.123625987E0,6.004607389E0
7.392228125E0,5.596580601E0,3.743294490E0,2.863696670E0,7.316742901E0
7.402240125E0,5.709588568E0,3.174151661E0,3.249928068E0,7.296346540E0
7.412252125E0,4.048193457E0,1.889554051E0,2.876964002E0,5.313681083E0
7.422264125E0,1.610321437E0,3.036424005E-1,2.188677430E0,2.734162163E0
7.432276125E0,-7.857330519E-1,-1.000474970E0,1.496232757E0,1.963934586E0
7.442288125E0,-2.662418550E0,-1.983655046E0,9.530672076E-1,3.454228855E0
7.452300125E0,-3.590878043E0,-2.506497282E0,7.445347399E-1,4.441988938E0
7.462312125E0,-3.596217721E0,-2.576225329E0,8.484970647E-1,4.504405189E0
7.472324125E0,-2.866923748E0,-2.220958446E0,1.055077293E0,3.776916241E0
7.482336125E0,-1.794454350E0,-1.786054825E0,1.161715158E0,2.785613104E0
7.492347125E0,-9.812002087E-1,-1.506625745E0,9.729964189E-1,2.044357360E0
7.502359125E0,-3.779762989E-1,-1.355570530E0,5.570035703E-1,1.513502732E0
7.512371125E0,-1.305624783E-2,-1.227311854E0,1.075968079E-1,1.232088441E0
7.522383125E0,-2.658495069E-2,-1.187886418E0,-2.525429982E-1,1.214725841E0
7.532395125E0,-2.728123713E-1,-1.305897263E0,-4.886121972E-1,1.420751960E0
7.542407125E0,-7.145326763E-1,-1.476658764E0,-6.062223619E-1,1.748880672E0
7.552419125E0,-1.289709247E0,-1.746144655E0,-6.544776785E-1,2.267313857E0
7.562431125E0,-1.762786415E0,-2.046825441E0,-6.281769025E-1,2.773358352E0
7.572443125E0,-2.054039150E0,-2.195000317E0,-5.382841480E-1,3.053989693E0
7.582455125E0,-2.210773766E0,-2.198693419E0,-4.139951473E-1,3.145340264E0
7.592467125E0,-2.266370262E0,-2.200576222E0,-3.012608296E-1,3.173283467E0
7.602479125E0,-2.326830472E0,-2.219083829E0,-2.978945875E-1,3.229119736E0
7.612490125E0,-2.420439717E0,-2.217805628E0,-3.047481090E-1,3.296977651E0
7.622502125E0,-2.528648874E0,-2.182998322E0,-3.561949821E-1,3.359527001E0
7.632514125E0,-2.686123163E0,-2.128792879E0,-4.263853973E-1,3.453812571E0
7.642526125E0,-2.794336413E0,-2.028958688E0,-5.431778289E-1,3.495716165E0
7.652538125E0,-2.919658032E0,-1.898890885E0,-6.964516237E-1,3.551793136E0
7.662550125E0,-2.986321553E0,-1.715205283E0,-7.655189350E-1,3.527898074E0
7.672562125E0,-2.848002743E0,-1.438955333E0,-6.504986483E-1,3.256510489E0
7.682574125E0,-2.690323802E0,-1.137048386E0,-5.330535212E-1,2.968984212E0
7.692586125E0,-2.428494841E0,-7.916200286E-1,-4.448547050E-1,2.592710005E0
7.702598125E0,-1.893697972E0,-4.315075582E-1,-3.331354639E-1,1.970601436E0
7.712610125E0,-1.083181497E0,4.070597649E-2,-8.909899503E-2,1.087601840E0
7.722622125E0,-3.077103084E-1,5.692749757E-1,1.892650151E-1,6.742261325E-1
7.732633125E0,4.767346019E-1,1.050749915E0,4.618877904E-1,1.242856225E0
7.742645125E0,1.261689974E0,1.456495226E0,8.948431192E-1,2.124613881E0
7.752657125E0,1.870896170E0,1.780860744E0,1.384969161E0,2.930845790E0
7.762669125E0,2.381019543E0,1.895695381E0,1.791401812E0,3.531576913E0
7.772681125E0,2.669632845E0,1.888003369E0,1.958967517E0,3.811699094E0
7.782693125E0,2.880094017E0,2.079840574E0,1.852227619E0,4.006423032E0
7.792705125E0,3.018067841E0,2.270430568E0,1.497051368E0,4.062603999E0
7.802717125E0,2.784594952E0,2.324040180E0,8.288328785E-1,3.720496707E0
7.812729125E0,2.511114244E0,2.396025837E0,1.092850453E-1,3.472546296E0
7.822741125E0,2.112512476E0,2.449583994E0,-5.820435405E-1,3.286631313E0
7.832753125E0,1.450859680E0,2.447310596E0,-1.309315546E0,3.131873267E0
7.842764125E0,9.236928427E-1,2.405456226E0,-1.941052379E0,3.226005652E0
7.852776125E0,6.178939891E-1,2.298886628E0,-2.383233445E0,3.368452814E0
7.862788125E0,6.882792628E-1,2.087686953E0,-2.490038540E0,3.321514276E0
7.872800125E0,1.683662478E0,2.045364221E0,-2.163259292E0,3.420222931E0
7.882812125E0,3.569919868E0,2.279401367E0,-1.528939743E0,4.503071751E0
7.892824125E0,5.454721887E0,2.425168945E0,-9.104857367E-1,6.038577609E0
7.902836125E0,6.576051788E0,2.286779383E0,-5.605088300E-1,6.984839813E0
7.912848125E0,6.475793089E0,1.701800541E0,-3.259128369E-1,6.703599063E0
7.922860125E0,5.281786391E0,7.389208281E-1,-7.019699335E-2,5.333685319E0
7.932872125E0,3.506560609E0,-3.159548825E-1,1.890134387E-1,3.525836195E0
7.942884125E0,2.099919913E0,-1.137562941E0,5.723212288E-1,2.455863326E0
7.952895125E0,1.206517986E0,-1.703741816E0,8.786061323E-1,2.265032133E0
7.962907125E0,8.137236732E-1,-2.076229919E0,1.101108475E0,2.487029707E0
7.972919125E0,7.975093442E-1,-2.277445473E0,1.271425588E0,2.727508398E0
7.982931125E0,8.680016220E-1,-2.333033783E0,1.126982989E0,2.732501437E0
7.992943125E0,9.875953084E-1,-2.353519503E0,6.629193038E-1,2.637017358E0
8.002955125E0,1.061324605E0,-2.272796937E0,1.260349792E-1,2.511553433E0
8.012967125E0,8.366114295E-1,-2.191733478E0,-4.563380519E-1,2.389949526E0
8.022979125E0,4.023878396E-1,-2.310013295E0,-1.078093835E0,2.580768047E0
8.032991125E0,-2.549117053E-1,-2.530505950E0,-1.576386828E0,2.992229231E0
8.043003125E0,-1.000466784E0,-2.697121775E0,-1.878215715E0,3.435563116E0
8.053015125E0,-1.684661767E0,-2.905282652E0,-2.032800894E0,3.925688734E0
8.063027125E0,-2.207075987E0,-3.095632911E0,-2.127484272E0,4.356640547E0
8.073038125E0,-2.500386942E0,-3.196000367E0,-2.039936397E0,4.541772090E0
8.083050125E0,-2.663189213E0,-3.193228787E0,-1.863664334E0,4.556592106E0
8.093062125E0,-2.649575141E0,-3.048899040E0,-1.618090047E0,4.351350271E0
8.103074125E0,-2.616003937E0,-2.862168792E0,-1.427229619E0,4.131884701E0
8.113086125E0,-2.725356225E0,-2.711259758E0,-1.383161494E0,4.085539346E0
8.123098125E0,-2.783167062E0,-2.555363633E0,-1.302191006E0,3.996448874E0
8.133110125E0,-2.728799651E0,-2.285047438E0,-1.077882458E0,3.718819695E0
8.143122125E0,-2.713280556E0,-1.965195971E0,-8.374522591E-1,3.453290151E0
8.153134458E0,-2.703609261E0,-1.701701723E0,-7.637334877E-1,3.284597484E0
8.163146458E0,-2.689813340E0,-1.456736131E0,-7.160845274E-1,3.141648136E0
8.173158458E0,-2.576404839E0,-1.140897024E0,-6.039296687E-1,2.881707646E0
8.183169458E0,-2.458046669E0,-8.385252231E-1,-6.595472145E-1,2.679574687E0
8.193181458E0,-2.277818525E0,-4.860047776E-1,-7.700726004E-1,2.453093901E0
8.203193458E0,-1.939391039E0,-9.893839717E-2,-8.169872966E-1,2.106773517E0
8.213205458E0,-1.552961420E0,3.242164135E-1,-7.760272586E-1,1.766075809E0
8.223217458E0,-1.214498851E0,6.961648178E-1,-5.901366717E-1,1.519182084E0
8.233229458E0,-9.403486365E-1,1.010749113E0,-3.428801411E-1,1.422475349E0
8.243241458E0,-6.196048844E-1,1.324444631E0,-4.798575997E-2,1.462999121E0
8.253253458E0,-2.622517151E-1,1.674965329E0,2.801406866E-1,1.718360736E0
8.263265458E0,8.040272355E-2,1.987855686E0,5.634885710E-1,2.067741327E0
8.273277458E0,2.769469374E-1,2.237254052E0,8.763339043E-1,2.418670380E0
8.283289458E0,2.523535484E-1,2.378754916E0,9.259867054E-1,2.565074783E0
8.293300458E0,2.596485347E-1,2.527590528E0,6.535649282E-1,2.623600266E0
8.303312458E0,4.660166556E-1,2.821135957E0,5.381180871E-1,2.909561940E0
8.313324458E0,7.147279733E-1,3.293329026E0,4.766036242E-1,3.403528047E0
8.323336458E0,8.556447011E-1,3.728440223E0,4.892564142E-1,3.856522552E0
8.333348458E0,9.942892009E-1,3.992646078E0,5.212301588E-1,4.147470867E0
8.343360458E0,1.315960321E0,4.268679096E0,6.885564208E-1,4.519677282E0
8.353372458E0,2.126368039E0,4.571014059E0,1.059723199E0,5.151565181E0
8.363384458E0,3.314671948E0,4.784250904E0,1.565150380E0,6.027089061E0
8.373396458E0,4.535534323E0,4.860945323E0,1.921841206E0,6.920501041E0
8.383408458E0,5.541841307E0,4.648578544E0,2.258099960E0,7.577618556E0
8.393420458E0,5.701201322E0,4.064518883E0,2.533055336E0,7.445829679E0
8.403431458E0,4.455729770E0,3.045179626E0,2.442804586E0,5.924013925E0
8.413443458E0,2.425938438E0,1.726590981E0,2.143644514E0,3.668992440E0
8.423455458E0,5.524361640E-1,5.356552398E-1,1.782530562E0,1.941527094E0
8.433467458E0,-8.769490314E-1,-3.934573871E-1,1.502909254E0,1.783979974E0
8.443479458E0,-1.622315245E0,-9.078802174E-1,1.441734515E0,2.352605291E0
8.453491458E0,-1.563903315E0,-1.159764819E0,1.632015191E0,2.540535691E0
8.463503458E0,-7.444400150E-1,-1.105430737E0,2.003671089E0,2.406421801E0
8.473515458E0,3.455143118E-1,-8.902432609E-1,2.220774551E0,2.417385532E0
8.483527458E0,1.147490344E0,-7.361094868E-1,2.154991621E0,2.550015716E0
8.493539458E0,1.327002788E0,-8.731401551E-1,1.732051111E0,2.350172585E0
8.503551458E0,7.877181816E-1,-1.246404183E0,1.045318875E0,1.807405564E0
8.513563458E0,-3.472018182E-2,-1.684413845E0,4.276030800E-1,1.738188680E0
8.523574458E0,-7.811926889E-1,-2.134805571E0,-8.774945766E-2,2.274941056E0
8.533586458E0,-1.432648526E0,-2.534141164E0,-5.673567966E-1,2.965846755E0
8.543598458E0,-1.798218788E0,-2.709336609E0,-8.646548219E-1,3.364776906E0
8.553610458E0,-1.953803256E0,-2.768107558E0,-9.962779851E-1,3.531619521E0
8.563622458E0,-2.099783088E0,-2.879063737E0,-1.086719355E0,3.725460505E0
8.573634458E0,-2.226848931E0,-2.951608973E0,-1.143452988E0,3.870185580E0
8.583646458E0,-2.321398993E0,-2.950825446E0,-1.228670747E0,3.950429838E0
8.593658458E0,-2.287551216E0,-2.870724438E0,-1.262391494E0,3.881698295E0
8.603670458E0,-2.165989941E0,-2.736865300E0,-1.201665967E0,3.691333796E0
8.613682458E0,-2.136684281E0,-2.594345850E0,-1.190822890E0,3.565684964E0
8.623693458E0,-2.217062446E0,-2.509049007E0,-1.160164623E0,3.543539863E0
8.633705458E0,-2.275143424E0,-2.427646995E0,-1.175871559E0,3.528798869E0
8.643717458E0,-2.306675119E0,-2.302518919E0,-1.196806346E0,3.471986305E0
8.653729458E0,-2.401975379E0,-2.131173865E0,-1.253479460E0,3.447114521E0
8.663741458E0,-2.502864992E0,-1.981067653E0,-1.288358101E0,3.442212779E0
8.673753458E0,-2.346264278E0,-1.683960686E0,-1.269008057E0,3.154530250E0
8.683765458E0,-1.939776955E0,-1.293723945E0,-1.053282491E0,2.558487891E0
8.693777458E0,-1.399378454E0,-8.779652774E-1,-6.670557703E-1,1.781585386E0
8.703789458E0,-8.225319189E-1,-5.600825679E-1,-3.153229447E-1,1.043877292E0
8.713801458E0,-3.159215534E-1,-2.130930036E-1,-3.863883957E-2,3.830248243E-1
8.723813458E0,1.723168606E-1,1.653031254E-1,1.661053634E-1,2.908766327E-1
8.733824458E0,4.084747910E-1,3.979796237E-1,3.218026829E-1,6.548254748E-1
8.743836458E0,5.313031572E-1,5.629880494E-1,4.334649137E-1,8.872037083E-1
8.753848458E0,7.351061046E-1,7.578997207E-1,7.162219369E-1,1.275839659E0
8.763860458E0,1.084280189E0,9.395680332E-1,1.048230204E0,1.776861890E0
8.773872458E0,1.613329829E0,1.171203727E0,1.214879504E0,2.334627062E0
8.783884458E0,2.184086489E0,1.594060330E0,1.190632271E0,2.954465659E0
8.793896458E0,2.753259138E0,2.115725521E0,1.077438800E0,3.635602389E0
8.803908458E0,2.885774587E0,2.540534509E0,7.349083225E-1,3.914345514E0
8.813920458E0,2.395867378E0,2.636854523E0,2.759382927E-1,3.573419120E0
8.823932458E0,1.486985532E0,2.629677066E0,-2.214399040E-1,3.029086178E0
8.833944458E0,6.750704026E-1,2.570954064E0,-7.484741552E-1,2.761473956E0
8.843956458E0,3.941093516E-1,2.485939642E0,-9.927741873E-1,2.705701142E0
8.853967458E0,1.031295644E0,2.613832866E0,-5.057572567E-1,2.855080272E0
8.863979458E0,2.780609490E0,2.871513813E0,4.452005678E-1,4.021888146E0
8.873991458E0,4.712700865E0,3.023223916E0,1.182282447E0,5.722519032E0
8.884003458E0,6.284653457E0,3.016954531E0,1.561249702E0,7.143975388E0
8.894015458E0,6.989882628E0,2.822252190E0,1.805965033E0,7.751456398E0
8.904027458E0,6.134093501E0,2.105501080E0,1.686366669E0,6.701049949E0
8.914039458E0,4.200334500E0,9.145051128E-1,1.266786261E0,4.481503871E0
8.924051458E0,2.289287254E0,-2.210136420E-1,8.686822379E-1,2.458514184E0
8.934063458E0,8.521761328E-1,-1.034737315E0,6.825554234E-1,1.504249773E0
8.944075458E0,7.492037416E-2,-1.545738940E0,6.916919902E-1,1.695098741E0
8.954086458E0,-1.918021220E-1,-1.793427579E0,5.805671185E-1,1.894789887E0
8.964098458E0,-1.150229180E-1,-1.908379161E0,1.902887164E-1,1.921288914E0
8.974110458E0,2.771053970E-2,-1.875219601E0,-5.318722375E-1,1.949385674E0
8.984122458E0,1.630583793E-1,-1.741224223E0,-1.393268406E0,2.235988971E0
8.994134458E0,2.240308052E-1,-1.628515048E0,-2.024004927E0,2.607459877E0
9.004146458E0,1.373177665E-1,-1.567459007E0,-2.461235155E0,2.921209064E0
9.014158458E0,2.131485522E-2,-1.517424967E0,-2.666059611E0,3.067720115E0
9.024170458E0,-3.160338199E-1,-1.490289794E0,-2.644709673E0,3.052102603E0
9.034182458E0,-7.525050795E-1,-1.613285390E0,-2.534498429E0,3.097198077E0
9.044194458E0,-1.192240840E0,-1.869484068E0,-2.415379098E0,3.278790186E0
9.054206458E0,-1.579553388E0,-2.098594934E0,-2.333746558E0,3.513611048E0
9.064217458E0,-1.888480502E0,-2.254441942E0,-2.288654147E0,3.726500353E0
9.074229458E0,-2.104870750E0,-2.339903092E0,-2.192375648E0,3.835640538E0
9.084241458E0,-2.173203067E0,-2.344862115E0,-1.851627987E0,3.694552220E0
9.094253458E0,-2.270131776E0,-2.307063959E0,-1.502495125E0,3.568407767E0
9.104265458E0,-2.341338583E0,-2.275940984E0,-1.283631651E0,3.508487415E0
9.114277458E0,-2.415002391E0,-2.200085641E0,-1.198735342E0,3.479882152E0
9.124289458E0,-2.355796409E0,-2.026918010E0,-1.166972097E0,3.319638115E0
9.134301458E0,-2.160552031E0,-1.702818541E0,-1.105545343E0,2.964760794E0
9.144313458E0,-2.092672289E0,-1.426758626E0,-1.228077986E0,2.814798932E0
9.154325583E0,-2.147988703E0,-1.225160079E0,-1.413604291E0,2.848359138E0
9.164337583E0,-2.067895297E0,-9.846319395E-1,-1.421275838E0,2.695499216E0
9.174348583E0,-1.846616777E0,-6.448438060E-1,-1.249118607E0,2.320800368E0
9.184360583E0,-1.458556954E0,-2.406029838E-1,-1.017305596E0,1.794488468E0
9.194372583E0,-9.156950212E-1,2.267398202E-1,-7.283609028E-1,1.191812872E0
9.204384583E0,-5.327860111E-1,6.753691953E-1,-5.202314544E-1,1.005298587E0
9.214396583E0,-5.536728501E-2,1.164119241E0,-2.506906003E-1,1.192092664E0
9.224408583E0,4.866345227E-1,1.722198552E0,1.319984083E-1,1.794492851E0
9.234420583E0,9.206072670E-1,2.216411651E0,5.814107256E-1,2.469420333E0
9.244432583E0,1.203367506E0,2.638701074E0,1.100942853E0,3.102081862E0
9.254444583E0,1.471735994E0,3.059973081E0,1.771883513E0,3.830014788E0
9.264456583E0,1.908252277E0,3.392196087E0,2.242601330E0,4.491957454E0
9.274467583E0,2.421675818E0,3.649413934E0,2.534545206E0,5.060301892E0
9.284479583E0,2.750889847E0,3.802051406E0,2.442381978E0,5.290389359E0
9.294491583E0,2.558854421E0,3.770881653E0,1.827469923E0,4.909880926E0
9.304503583E0,1.725926737E0,3.530934142E0,1.079481817E0,4.075733065E0
9.314515583E0,5.299045032E-1,3.106360797E0,3.919909054E-1,3.175520911E0
9.324527583E0,-7.699970251E-1,2.758368436E0,-2.133254305E-1,2.871758970E0
9.334539583E0,-1.442428579E0,2.704423778E0,-4.897436334E-1,3.103926063E0
9.344551583E0,-1.274942688E0,2.827787749E0,-2.062959078E-1,3.108765095E0
9.354563583E0,-4.186705810E-1,2.916143271E0,5.450492303E-1,2.996039935E0
9.364575583E0,6.498998934E-1,2.742520727E0,1.284942597E0,3.097558278E0
9.374587583E0,1.421804280E0,2.410051553E0,1.781872312E0,3.317370169E0
9.384598583E0,1.768722509E0,2.107213730E0,2.107972698E0,3.465873326E0
9.394610583E0,1.209125844E0,1.547610633E0,2.121678572E0,2.891125030E0
9.404622583E0,-3.871441483E-2,7.912990165E-1,1.754236324E0,1.924837141E0
9.414634583E0,-1.133117888E0,1.901637322E-1,1.303536742E0,1.737620911E0
9.424646583E0,-1.936069821E0,-1.940620708E-1,9.489630470E-1,2.164845792E0
9.434658583E0,-2.398959970E0,-4.120889550E-1,7.831930214E-1,2.556993851E0
9.444670583E0,-1.987176824E0,-4.546180934E-1,8.374423188E-1,2.203828255E0
9.454682583E0,-6.928184563E-1,-2.397177154E-1,1.089682724E0,1.313343228E0
9.464694583E0,6.842920464E-1,4.509840488E-2,1.181804144E0,1.366363973E0
9.474705583E0,1.775421664E0,2.845301914E-1,1.182273968E0,2.151941275E0
9.484717583E0,2.449723742E0,3.166518706E-1,1.124606681E0,2.714066139E0
9.494729583E0,2.490895157E0,4.186606407E-4,9.008436781E-1,2.648788061E0
9.504741583E0,1.828300958E0,-5.419556147E-1,4.778835797E-1,1.965902591E0
9.514753583E0,9.022230363E-1,-1.212037173E0,5.954088137E-2,1.512146035E0
9.524765583E0,9.717487693E-2,-1.879192784E0,-2.788747644E-1,1.902256453E0
9.534777583E0,-7.316691113E-1,-2.498362051E0,-4.849066705E-1,2.648072338E0
9.544789583E0,-1.496218286E0,-3.004728003E0,-5.924137236E-1,3.408520728E0
9.554801583E0,-1.989105821E0,-3.412509314E0,-5.912610912E-1,3.993914304E0
9.564813583E0,-2.327918639E0,-3.681711030E0,-5.294688857E-1,4.387999384E0
9.574825583E0,-2.471871825E0,-3.809134723E0,-5.667586264E-1,4.576119863E0
9.584836583E0,-2.582202353E0,-3.870639830E0,-6.049438682E-1,4.692076168E0
9.594848583E0,-2.696667446E0,-3.867086477E0,-6.455676913E-1,4.758479882E0
9.604860583E0,-2.663403806E0,-3.743448272E0,-8.142037296E-1,4.665838886E0
9.614872583E0,-2.581512966E0,-3.553687413E0,-1.020212393E0,4.509294485E0
9.624884583E0,-2.535651500E0,-3.320327960E0,-1.289767280E0,4.372368457E0
9.634896583E0,-2.501545860E0,-3.033781648E0,-1.431155732E0,4.184467650E0
9.644908583E0,-2.566377448E0,-2.768546099E0,-1.549325037E0,4.080630929E0
9.654920583E0,-2.505972787E0,-2.498577814E0,-1.552705166E0,3.864412508E0
9.664932583E0,-2.232202057E0,-2.167964546E0,-1.416936619E0,3.419138149E0
9.674944583E0,-1.643764002E0,-1.737125325E0,-1.157748845E0,2.657056054E0
9.684955583E0,-8.514124864E-1,-1.196541467E0,-8.028076525E-1,1.673653139E0
9.694967583E0,-2.053483665E-2,-5.534705365E-1,-3.926671359E-1,6.789247336E-1
9.704979583E0,5.510977364E-1,4.169006288E-2,5.367320046E-2,5.552725356E-1
9.714991583E0,8.073899692E-1,4.325232196E-1,5.016718072E-1,1.044332083E0
9.725003583E0,1.000072682E0,8.185663372E-1,9.596707606E-1,1.609709348E0
9.735015583E0,1.328253508E0,1.219514008E0,1.513029031E0,2.353875239E0
9.745027583E0,1.860724354E0,1.613567811E0,2.202961301E0,3.304381136E0
9.755039583E0,2.437368575E0,1.976830761E0,2.625389303E0,4.091612692E0
9.765051583E0,2.761284442E0,2.415825094E0,2.526781858E0,4.454832120E0
9.775063583E0,2.510955784E0,2.724672686E0,1.932732668E0,4.179018517E0
9.785074583E0,1.925605643E0,2.804345677E0,1.080402169E0,3.569254911E0
9.795086583E0,1.356131862E0,2.782488200E0,3.113529776E-1,3.110992589E0
9.805098583E0,1.065596581E0,2.852303370E0,-2.741351576E-1,3.057168735E0
9.815110583E0,1.307372516E0,2.951428878E0,-5.045199859E-1,3.267215288E0
9.825122583E0,2.482759341E0,3.171497025E0,-1.704831737E-1,4.031321352E0
9.835134583E0,4.672405363E0,3.494604807E0,6.250948352E-1,5.868081303E0
9.845146583E0,7.216393822E0,3.784649507E0,1.473010979E0,8.280680711E0
9.855158583E0,9.042192172E0,3.926656741E0,2.382723714E0,1.014185608E1
9.865170583E0,8.902192873E0,3.344248919E0,2.823231599E0,9.919862672E0
9.875182583E0,6.659655277E0,1.809548938E0,2.439063098E0,7.319460675E0
9.885193583E0,3.858044928E0,1.102732247E-1,1.771244120E0,4.246642978E0
9.895205583E0,1.501335769E0,-1.262420291E0,1.123615578E0,2.260580910E0
9.905217583E0,-2.688807034E-1,-2.357741193E0,5.695816621E-1,2.440422839E0
9.915229583E0,-1.338739904E0,-3.068367344E0,4.258059382E-2,3.347971893E0
9.925241583E0,-1.753406897E0,-3.312431295E0,-6.666246843E-1,3.806707934E0
9.935253583E0,-1.458375691E0,-3.221270864E0,-1.460854325E0,3.825903945E0
9.945265583E0,-8.027203828E-1,-2.872524211E0,-2.226739004E0,3.722112565E0
9.955277583E0,-3.817302114E-1,-2.449296895E0,-2.885086954E0,3.803748147E0
9.965289583E0,-1.471767569E-1,-2.100880610E0,-3.354598491E0,3.960895274E0
9.975301583E0,5.736118555E-2,-1.808673609E0,-3.463647308E0,3.907869395E0
9.985312583E0,-3.220587909E-2,-1.612811181E0,-3.434445729E0,3.794418873E0
9.995324583E0,-1.492876017E-1,-1.461237318E0,-3.351835681E0,3.659549661E0
1.000533658E1,-2.063131571E-1,-1.338186173E0,-3.245105869E0,3.516250767E0
1.001534858E1,-3.891871655E-1,-1.355709693E0,-3.115805220E0,3.420183853E0
1.002536058E1,-6.604166955E-1,-1.483757869E0,-2.926678784E0,3.347108652E0
1.003537258E1,-1.026503851E0,-1.658048165E0,-2.638409883E0,3.280859732E0
1.004538458E1,-1.446512275E0,-1.792225977E0,-2.180696566E0,3.171735995E0
1.005539658E1,-1.796243598E0,-1.901919742E0,-1.810364332E0,3.181384728E0
1.006540858E1,-2.036734900E0,-1.947238587E0,-1.364875789E0,3.130960410E0
1.007542058E1,-2.102074612E0,-1.846880486E0,-9.971096054E-1,2.970507157E0
1.008543158E1,-2.127204190E0,-1.693088189E0,-7.908122358E-1,2.831418245E0
1.009544358E1,-2.238818766E0,-1.571559075E0,-7.526948217E-1,2.837015490E0
1.010545558E1,-2.236828959E0,-1.401093442E0,-7.577380452E-1,2.746021408E0
1.011546758E1,-1.967456505E0,-1.126638588E0,-6.890417397E-1,2.369594507E0
1.012547958E1,-1.653905997E0,-7.449762046E-1,-6.301816204E-1,1.920292548E0
1.013549158E1,-1.255196056E0,-3.926785380E-1,-5.928336999E-1,1.442624473E0
1.014550358E1,-7.262522507E-1,3.156327009E-2,-5.578419149E-1,9.163111773E-1
1.015551500E1,-1.406559420E-1,4.934669942E-1,-6.260072932E-1,8.094312197E-1
1.016552700E1,2.845196664E-1,9.226257259E-1,-7.443344727E-1,1.219107656E0
1.017553900E1,6.709621489E-1,1.412582052E0,-6.324471241E-1,1.686881034E0
1.018555000E1,8.597108549E-1,1.834960937E0,-2.772020222E-1,2.045244571E0
1.019556200E1,7.288016367E-1,2.034895951E0,6.601331055E-2,2.162478003E0
1.020557400E1,6.676040930E-1,2.172283884E0,6.334537223E-1,2.359189716E0
1.021558600E1,7.509619993E-1,2.421876377E0,1.280964590E0,2.840827237E0
1.022559800E1,9.767674345E-1,2.754620370E0,1.868080151E0,3.468678633E0
1.023561000E1,1.334167966E0,3.038616711E0,2.231928700E0,3.999337620E0
1.024562200E1,1.542302531E0,3.314336902E0,2.215457386E0,4.274549991E0
1.025563400E1,1.151890374E0,3.455512662E0,1.915268936E0,4.115297594E0
1.026564600E1,2.287799138E-1,3.413462995E0,1.461382037E0,3.720175712E0
1.027565800E1,-6.314028114E-1,3.355253379E0,1.009531430E0,3.560273649E0
1.028566900E1,-8.738903528E-1,3.280994909E0,8.402179921E-1,3.497796195E0
1.029568100E1,-3.235270268E-1,3.147287799E0,1.005245129E0,3.319730108E0
1.030569300E1,1.207674565E0,3.201246489E0,1.602534115E0,3.778170527E0
1.031570500E1,3.093902720E0,3.327269774E0,2.300941924E0,5.092866769E0
1.032571700E1,4.596254150E0,3.351259146E0,2.780480851E0,6.331474065E0
1.033572900E1,4.835668979E0,3.005809738E0,2.930469534E0,6.403611352E0
1.034574100E1,3.365038109E0,2.011283140E0,2.452674832E0,4.624322132E0
1.035575300E1,1.085694630E0,7.628119665E-1,1.686987205E0,2.146285339E0
1.036576500E1,-7.522571576E-1,-2.584387457E-1,1.179267038E0,1.422445838E0
1.037577600E1,-1.952699302E0,-9.683293176E-1,1.053817803E0,2.420997355E0
1.038578800E1,-2.408319608E0,-1.395319902E0,1.165503715E0,3.017502257E0
1.039580000E1,-2.060394489E0,-1.520923941E0,1.472846672E0,2.954270198E0
1.040581200E1,-1.209966089E0,-1.487698892E0,1.745014388E0,2.592747798E0
1.041582400E1,-3.504581326E-1,-1.384600786E0,1.781167138E0,2.283089269E0
1.042583600E1,3.366288829E-1,-1.267487488E0,1.586568877E0,2.058408205E0
1.043584800E1,6.061773384E-1,-1.305119584E0,1.209968428E0,1.880109489E0
1.044586000E1,3.995034081E-1,-1.523901343E0,6.624716994E-1,1.709019318E0
1.045587200E1,-2.247529364E-1,-1.900629846E0,1.362763774E-1,1.918718048E0
1.046588400E1,-9.653653640E-1,-2.350950236E0,-3.190283252E-1,2.561381731E0
1.047589500E1,-1.603816409E0,-2.713653023E0,-6.924578293E-1,3.227326703E0
1.048590700E1,-2.150918158E0,-2.935797517E0,-9.895836541E-1,3.771555620E0
1.049591900E1,-2.522364872E0,-3.070410361E0,-1.167837485E0,4.141689115E0
1.050593100E1,-2.685427929E0,-3.134043855E0,-1.157833191E0,4.286529102E0
1.051594300E1,-2.642878325E0,-3.095316576E0,-9.991113997E-1,4.190944301E0
1.052595500E1,-2.559308749E0,-3.053110204E0,-7.286326522E-1,4.049993671E0
1.053596700E1,-2.481325604E0,-3.012175602E0,-5.595706442E-1,3.942498943E0
1.054597900E1,-2.458844229E0,-2.889171234E0,-5.927527159E-1,3.839867334E0
1.055599100E1,-2.392278357E0,-2.705613102E0,-6.816058356E-1,3.675312845E0
1.056600300E1,-2.362392068E0,-2.527084744E0,-7.641036165E-1,3.542726058E0
1.057601400E1,-2.457849618E0,-2.369993448E0,-8.979311800E-1,3.530463722E0
1.058602600E1,-2.535473160E0,-2.204603199E0,-9.806722051E-1,3.500088197E0
1.059603800E1,-2.355329216E0,-1.909330503E0,-9.204979241E-1,3.168664563E0
1.060605000E1,-2.037509657E0,-1.559455923E0,-7.214056398E-1,2.665290692E0
1.061606200E1,-1.711634388E0,-1.223793585E0,-5.078664936E-1,2.164553393E0
1.062607400E1,-1.530039166E0,-9.653647792E-1,-3.893587813E-1,1.850553773E0
1.063608600E1,-1.176077966E0,-6.683519518E-1,-2.327893496E-1,1.372605040E0
1.064609800E1,-6.359326494E-1,-2.880262417E-1,-9.785315394E-2,7.049430404E-1
1.065611000E1,-7.161669731E-2,1.820150524E-1,9.914027229E-2,2.192879938E-1
1.066612100E1,3.990075642E-1,6.797429127E-1,3.498821819E-1,8.623659344E-1
1.067613300E1,6.995866084E-1,1.071378892E0,7.094697185E-1,1.463086270E0
1.068614500E1,8.900924027E-1,1.294144945E0,1.091024952E0,1.912435899E0
1.069615700E1,1.073380394E0,1.406768165E0,1.480645981E0,2.307261290E0
1.070616900E1,1.364434909E0,1.555623073E0,1.776729686E0,2.727345622E0
1.071618100E1,1.691393666E0,1.715352048E0,1.818607444E0,3.018373439E0
1.072619300E1,2.022075931E0,1.835871933E0,1.576181737E0,3.153341988E0
1.073620500E1,2.191825864E0,1.967961119E0,1.083555719E0,3.138640562E0
1.074621700E1,2.150007747E0,2.147968238E0,4.949457550E-1,3.079167446E0
1.075622800E1,1.897240800E0,2.302607796E0,7.384463266E-2,2.984456122E0
1.076624000E1,1.249986187E0,2.329734784E0,-2.773240829E-1,2.658390167E0
1.077625200E1,7.148086649E-1,2.306132498E0,-5.496236533E-1,2.476143107E0
1.078626400E1,5.381215954E-1,2.299447961E0,-5.284941548E-1,2.419987985E0
1.079627600E1,6.280891943E-1,2.211199443E0,-3.419897564E-1,2.323974184E0
1.080628800E1,1.140270202E0,2.180334331E0,1.698835418E-2,2.460561426E0
1.081630000E1,2.248822768E0,2.196359210E0,4.721334279E-1,3.178695895E0
1.082631200E1,3.446165888E0,2.216317511E0,7.699134099E-1,4.169039373E0
1.083632400E1,4.337481528E0,2.214129483E0,8.461704576E-1,4.942885778E0
1.084633600E1,4.775834422E0,2.061125976E0,9.250148982E-1,5.283226975E0
1.085634700E1,4.490671561E0,1.625015489E0,9.103535897E-1,4.861640677E0
1.086635900E1,3.545407171E0,8.529251611E-1,7.614057112E-1,3.725202275E0
1.087637100E1,2.414860303E0,1.242065549E-2,5.576472026E-1,2.478442043E0
1.088638300E1,1.530896367E0,-6.263040394E-1,3.539421961E-1,1.691500965E0
1.089639500E1,1.043499953E0,-1.020578282E0,1.281288671E-1,1.465226668E0
1.090640700E1,8.210660219E-1,-1.225052490E0,-1.798550910E-1,1.485681955E0
1.091641900E1,7.569565648E-1,-1.375311314E0,-5.274284998E-1,1.656093378E0
1.092643100E1,6.421517479E-1,-1.496434633E0,-9.541834411E-1,1.887363642E0
1.093644300E1,5.885292721E-1,-1.549975832E0,-1.364136116E0,2.147011674E0
1.094645400E1,4.978032893E-1,-1.578994394E0,-1.760448698E0,2.416652857E0
1.095646600E1,3.360020614E-1,-1.638583369E0,-1.994657898E0,2.603173635E0
1.096647800E1,-5.019425333E-2,-1.775730397E0,-2.031187208E0,2.698417940E0
1.097649000E1,-6.906748670E-1,-2.016377819E0,-2.039391291E0,2.949903069E0
1.098650200E1,-1.272037207E0,-2.335611820E0,-1.982896370E0,3.317384398E0
1.099651400E1,-1.813902190E0,-2.581042265E0,-1.850400510E0,3.657321749E0
1.100652600E1,-2.165356688E0,-2.673814774E0,-1.639120435E0,3.811137734E0
1.101653800E1,-2.405784255E0,-2.719795523E0,-1.481154250E0,3.921594508E0
1.102655000E1,-2.532920850E0,-2.760679255E0,-1.348227012E0,3.981802865E0
1.103656100E1,-2.625910290E0,-2.714316682E0,-1.280370074E0,3.987764716E0
1.104657300E1,-2.731136198E0,-2.551754147E0,-1.342389444E0,3.971468693E0
1.105658500E1,-2.742384487E0,-2.394686240E0,-1.452650097E0,3.919870810E0
1.106659700E1,-2.638369537E0,-2.140864456E0,-1.515746816E0,3.720454655E0
1.107660900E1,-2.599484968E0,-1.806645210E0,-1.522847237E0,3.512883818E0
1.108662100E1,-2.519537743E0,-1.530008760E0,-1.523897396E0,3.318321943E0
1.109663300E1,-2.388650159E0,-1.269598333E0,-1.622747939E0,3.154495266E0
1.110664500E1,-2.308967813E0,-9.372040039E-1,-1.681987250E0,3.006453861E0
1.111665700E1,-2.126230629E0,-5.750678122E-1,-1.677984978E0,2.768969711E0
1.112666800E1,-1.699497907E0,-1.987714183E-1,-1.526433188E0,2.292989640E0
1.113668000E1,-1.139512988E0,2.513302857E-1,-1.331731139E0,1.770639599E0
1.114669200E1,-5.716208786E-1,7.338425213E-1,-9.851448865E-1,1.354911703E0
1.115670408E1,-7.470578134E-2,1.123410341E0,-4.903594914E-1,1.228040788E0
1.116671608E1,3.336304307E-1,1.487625217E0,-9.043362200E-2,1.527257769E0
1.117672808E1,5.133065969E-1,1.803040987E0,4.165519886E-1,1.920405171E0
1.118674008E1,4.692981130E-1,2.050626715E0,9.828770439E-1,2.321929785E0
1.119675208E1,4.627960092E-1,2.317472003E0,1.413807336E0,2.753853267E0
1.120676408E1,7.262148285E-1,2.699879907E0,1.839512263E0,3.346721508E0
1.121677608E1,1.221586261E0,3.202317114E0,2.258969733E0,4.104881503E0
1.122678708E1,1.643022575E0,3.650731312E0,2.583667080E0,4.764734817E0
1.123679908E1,1.887894611E0,3.852026389E0,2.673416871E0,5.054642532E0
1.124681108E1,1.779793042E0,3.866447377E0,2.519444480E0,4.946178229E0
1.125682308E1,1.153146940E0,3.806148550E0,2.028747896E0,4.464564108E0
1.126683508E1,2.333115059E-1,3.593656055E0,1.230772821E0,3.805732497E0
1.127684708E1,-3.585354763E-1,3.484777392E0,6.443415302E-1,3.561937277E0
1.128685908E1,-5.785638624E-1,3.483356518E0,3.788443181E-1,3.551342252E0
1.129687108E1,-8.918816507E-2,3.416669608E0,5.138357699E-1,3.456242604E0
1.130688208E1,1.309647083E0,3.459537885E0,1.214195380E0,3.893308141E0
1.131689408E1,3.090197924E0,3.485187281E0,2.102966897E0,5.110608903E0
1.132690608E1,4.643281551E0,3.392887813E0,2.854834630E0,6.420423042E0
1.133691808E1,4.763725423E0,2.921457220E0,3.056699810E0,6.369568739E0
1.134693008E1,3.073545638E0,1.832042007E0,2.580194711E0,4.411401756E0
1.135694208E1,7.343032819E-1,3.697194457E-1,1.842621959E0,2.017708964E0
1.136695408E1,-1.244460568E0,-7.061746663E-1,1.231023082E0,1.887533468E0
1.137696608E1,-2.769427859E0,-1.337115548E0,8.972061253E-1,3.203527351E0
1.138697808E1,-3.441039634E0,-1.648472764E0,8.897102872E-1,3.917882159E0
1.139699008E1,-3.198948534E0,-1.713416035E0,1.103936774E0,3.793117798E0
1.140700108E1,-2.210244008E0,-1.524381984E0,1.396877015E0,3.026579655E0
1.141701308E1,-1.166690846E0,-1.287398427E0,1.439821744E0,2.256468235E0
1.142702508E1,-2.377629912E-1,-1.094706944E0,1.216696819E0,1.653863864E0
1.143703708E1,6.767391980E-1,-9.463759464E-1,1.031167005E0,1.554641041E0
1.144704908E1,1.190438728E0,-9.294792473E-1,8.033536363E-1,1.710687903E0
1.145706108E1,1.111310112E0,-1.057803411E0,4.687964219E-1,1.604284360E0
1.146707308E1,4.890172631E-1,-1.437348518E0,6.171005219E-2,1.519512019E0
1.147708508E1,-4.338125306E-1,-1.993772483E0,-3.629574332E-1,2.072452684E0
1.148709608E1,-1.237003030E0,-2.519048331E0,-7.371403509E-1,2.901578344E0
1.149710808E1,-2.088048896E0,-3.017527558E0,-1.093698299E0,3.829046451E0
1.150712008E1,-2.663969232E0,-3.288653008E0,-1.261376856E0,4.416224886E0
1.151713208E1,-2.942199048E0,-3.398313444E0,-1.214355740E0,4.656149629E0
1.152714408E1,-3.045041631E0,-3.429573244E0,-1.109939525E0,4.718709243E0
1.153715608E1,-2.986251386E0,-3.388842124E0,-9.923129882E-1,4.624568450E0
1.154716808E1,-2.834610865E0,-3.244183763E0,-8.342099780E-1,4.388126404E0
1.155718008E1,-2.668372770E0,-3.077854452E0,-7.702081096E-1,4.145675071E0
1.156719208E1,-2.608330636E0,-2.962408780E0,-8.738967848E-1,4.042641473E0
1.157720308E1,-2.594576231E0,-2.783491582E0,-1.034453871E0,3.943316627E0
1.158721508E1,-2.561616061E0,-2.590700111E0,-1.172419363E0,3.827292917E0
1.159722708E1,-2.428010691E0,-2.318422176E0,-1.189560476E0,3.561652907E0
1.160723908E1,-2.241484512E0,-1.969224703E0,-1.114996928E0,3.185171408E0
1.161725108E1,-2.027957645E0,-1.624226700E0,-9.743773851E-1,2.774911867E0
1.162726308E1,-1.759623072E0,-1.320356258E0,-8.709111965E-1,2.366030497E0
1.163727508E1,-1.278568547E0,-9.245944834E-1,-7.300161034E-1,1.738544218E0
1.164728708E1,-7.658729839E-1,-4.578510189E-1,-5.884456569E-1,1.068857930E0
1.165729908E1,-2.045747799E-1,1.192831993E-4,-2.916620404E-1,3.562549657E-1
1.166731008E1,3.014374155E-1,4.871683735E-1,2.263167742E-1,6.159681987E-1
1.167732208E1,9.022961265E-1,1.007416200E0,8.167342584E-1,1.579898905E0
1.168733408E1,1.278090245E0,1.526749522E0,1.354325511E0,2.408044096E0
1.169734608E1,1.686039371E0,1.857500784E0,1.723038651E0,3.043337003E0
1.170735808E1,2.177224782E0,2.038781426E0,1.977669690E0,3.578842670E0
1.171737008E1,2.634058970E0,2.191204305E0,1.940763234E0,3.937791880E0
1.172738208E1,2.998753903E0,2.424066160E0,1.644080044E0,4.191851728E0
1.173739408E1,2.812459273E0,2.704256548E0,1.130608555E0,4.062167690E0
1.174740608E1,1.943263065E0,2.716245679E0,4.423190600E-1,3.368962463E0
1.175741708E1,1.003974529E0,2.616489256E0,-2.574882808E-1,2.814299397E0
1.176742908E1,4.631784171E-1,2.616731331E0,-7.545767480E-1,2.762463244E0
1.177744108E1,3.089551806E-1,2.608414836E0,-1.094827689E0,2.845686021E0
1.178745308E1,1.154358484E0,2.726653138E0,-9.342108142E-1,3.104823777E0
1.179746508E1,3.680960248E0,3.146701323E0,4.146085203E-2,4.842821137E0
1.180747708E1,6.837702994E0,3.675565606E0,1.070759672E0,7.836484609E0
1.181748908E1,9.299528133E0,4.157221225E0,1.848907131E0,1.035288218E1
1.182750108E1,9.919022505E0,3.879864398E0,1.961796400E0,1.083000463E1
1.183751208E1,8.143106752E0,2.370976365E0,1.326141493E0,8.584309393E0
1.184752408E1,5.140050468E0,5.659964418E-1,6.763094276E-1,5.215157258E0
1.185753608E1,2.520405470E0,-8.013375163E-1,2.752354574E-1,2.659011114E0
1.186754808E1,6.272729230E-1,-1.893858186E0,2.056170461E-1,2.005604278E0
1.187756008E1,-4.142231888E-1,-2.600263817E0,4.169167086E-1,2.665853018E0
1.188757208E1,-7.328514183E-1,-3.018898146E0,6.402209973E-1,3.171860675E0
1.189758408E1,-7.567326164E-1,-3.168639491E0,5.758358440E-1,3.308248388E0
1.190759608E1,-6.262139922E-1,-3.128501864E0,1.081769979E-1,3.192392542E0
1.191760808E1,-4.658225280E-1,-2.994286045E0,-6.553588539E-1,3.100360427E0
1.192761908E1,-4.054231292E-1,-2.805491731E0,-1.659096571E0,3.284471525E0
1.193763108E1,-5.914692521E-1,-2.618449827E0,-2.503922169E0,3.670931980E0
1.194764308E1,-9.344961584E-1,-2.450106150E0,-3.095063100E0,4.056564902E0
1.195765508E1,-1.110796727E0,-2.312510056E0,-3.380295834E0,4.243580098E0
1.196766708E1,-1.346604994E0,-2.099971953E0,-3.430240411E0,4.241435664E0
1.197767908E1,-1.553098245E0,-1.913734626E0,-3.332137581E0,4.144591082E0
1.198769108E1,-1.550019686E0,-1.772662947E0,-3.127990817E0,3.915254973E0
1.199770308E1,-1.458822418E0,-1.681948659E0,-2.810427366E0,3.585472928E0
1.200771408E1,-1.332147753E0,-1.554499823E0,-2.393539309E0,3.149621844E0
1.201772608E1,-1.288740363E0,-1.434298026E0,-2.009598119E0,2.785057836E0
1.202773808E1,-1.396435550E0,-1.400847859E0,-1.777959355E0,2.659613964E0
1.203775008E1,-1.699068137E0,-1.487332857E0,-1.599805219E0,2.767375706E0
1.204776208E1,-1.948756524E0,-1.499350054E0,-1.403280886E0,2.831059841E0
1.205777408E1,-2.075783191E0,-1.395566654E0,-1.163809338E0,2.758792185E0
1.206778608E1,-2.092318532E0,-1.239988618E0,-9.386760405E-1,2.607006199E0
1.207779808E1,-2.118582471E0,-1.076067190E0,-7.705766304E-1,2.498019341E0
1.208781008E1,-2.041783971E0,-8.599827504E-1,-7.057519126E-1,2.325196310E0
1.209782108E1,-1.933377762E0,-5.962446731E-1,-8.804652545E-1,2.206507726E0
1.210783308E1,-1.695352231E0,-3.489203149E-1,-1.218661630E0,2.116861059E0
1.211784508E1,-1.321047984E0,-9.641473889E-3,-1.374479548E0,1.906424602E0
1.212785708E1,-7.718581939E-1,4.223239213E-1,-1.249262887E0,1.527998798E0
1.213786908E1,-1.853514737E-1,8.249187523E-1,-8.775781918E-1,1.218601493E0
1.214788108E1,1.217542326E-1,1.130390747E0,-5.775888392E-1,1.275231822E0
1.215789371E1,2.240764135E-1,1.339523431E0,-9.505350709E-2,1.361458200E0
1.216790571E1,2.500935996E-1,1.544963599E0,3.570917988E-1,1.605295575E0
1.217791671E1,2.094455105E-1,1.791782758E0,6.614931679E-1,1.921438545E0
1.218792871E1,2.349803013E-1,2.055686311E0,1.037063338E0,2.314424835E0
1.219794071E1,5.245045996E-1,2.364978876E0,1.486276850E0,2.842050146E0
1.220795271E1,1.107353302E0,2.832681869E0,2.057590165E0,3.672055989E0
1.221796471E1,1.597059951E0,3.336823540E0,2.570997918E0,4.504999680E0
1.222797671E1,1.551269821E0,3.626591082E0,2.648021828E0,4.750854717E0
1.223798871E1,8.650505322E-1,3.622898566E0,2.179422019E0,4.315505391E0
1.224800071E1,1.024683613E-1,3.399265371E0,1.600567988E0,3.758633091E0
1.225801171E1,-3.867588168E-1,3.250092375E0,1.212155140E0,3.490272613E0
1.226802371E1,-2.512595344E-1,3.224254113E0,1.062860668E0,3.404206037E0
1.227803571E1,1.090593427E0,3.445311025E0,1.448138093E0,3.893156305E0
1.228804771E1,3.149895072E0,3.740822287E0,2.158872710E0,5.345682532E0
1.229805971E1,4.905701081E0,3.847265586E0,2.698542649E0,6.793341447E0
1.230807171E1,5.514977444E0,3.623385639E0,3.005498081E0,7.250994305E0
1.231808371E1,4.306321716E0,2.672831857E0,2.726893458E0,5.755378770E0
1.232809571E1,1.747826899E0,1.248518536E0,1.876916756E0,2.852457521E0
1.233810671E1,-5.710671473E-1,7.281362236E-2,1.136764796E0,1.274226712E0
1.234811871E1,-2.199257090E0,-7.578851026E-1,7.356139353E-1,2.439723230E0
1.235813071E1,-3.024143098E0,-1.226910151E0,6.828764355E-1,3.334227080E0
1.236814271E1,-2.920472549E0,-1.324096722E0,1.061708182E0,3.377812355E0
1.237815471E1,-2.010111943E0,-1.183382893E0,1.589049705E0,2.822414579E0
1.238816671E1,-1.110706680E0,-9.982764173E-1,1.805992953E0,2.343466595E0
1.239817871E1,-4.184209049E-1,-8.865226775E-1,1.741528717E0,1.998479618E0
1.240819071E1,1.238615692E-2,-9.080275673E-1,1.568145324E0,1.812111265E0
1.241820271E1,5.304827929E-2,-1.021724337E0,1.250379120E0,1.615605981E0
1.242821371E1,-4.277688485E-1,-1.286450593E0,7.837403208E-1,1.565947064E0
1.243822571E1,-1.309413194E0,-1.743143864E0,3.846047026E-1,2.213827956E0
1.244823771E1,-2.016808174E0,-2.230056714E0,1.332486892E-1,3.009721477E0
1.245824971E1,-2.503174310E0,-2.554340955E0,-1.245822385E-2,3.576408051E0
1.246826171E1,-2.932045943E0,-2.684454952E0,-1.593892515E-1,3.978516901E0
1.247827371E1,-3.189140999E0,-2.774514352E0,-3.192803402E-1,4.239161490E0
1.248828571E1,-3.113829446E0,-2.733566301E0,-3.701176411E-1,4.159964616E0
1.249829771E1,-2.951504892E0,-2.577187196E0,-3.942882764E-1,3.938113535E0
1.250830871E1,-2.816174009E0,-2.422277496E0,-5.363341016E-1,3.753121180E0
1.251832071E1,-2.669194304E0,-2.335354543E0,-6.778642023E-1,3.610814167E0
1.252833271E1,-2.584257649E0,-2.193786435E0,-7.508966567E-1,3.472021358E0
1.253834471E1,-2.443928567E0,-1.997113582E0,-8.297656555E-1,3.263397086E0
1.254835671E1,-2.299610513E0,-1.750699051E0,-8.732356109E-1,3.019221110E0
1.255836871E1,-2.152124439E0,-1.500469796E0,-8.673693918E-1,2.763218933E0
1.256838071E1,-1.932710010E0,-1.262032621E0,-7.450552882E-1,2.425531221E0
1.257839271E1,-1.721816729E0,-1.104729656E0,-7.357183081E-1,2.174019754E0
1.258840371E1,-1.656586946E0,-9.853090471E-1,-7.556017649E-1,2.070277337E0
1.259841571E1,-1.582934248E0,-8.853538191E-1,-8.183991069E-1,1.989801326E0
1.260842771E1,-1.164380611E0,-7.323766243E-1,-7.003783214E-1,1.543595647E0
1.261843971E1,-2.371256447E-1,-3.381801492E-1,-2.774614924E-1,4.975733759E-1
1.262845171E1,4.875917119E-1,9.789466918E-2,1.600284983E-1,5.224348419E-1
1.263846371E1,9.098121375E-1,4.085402799E-1,5.386706489E-1,1.133503134E0
1.264847571E1,1.108446146E0,6.156597680E-1,8.797365452E-1,1.543251826E0
1.265848771E1,1.209597715E0,6.742915535E-1,1.109936602E0,1.774754910E0
1.266849871E1,1.253399207E0,7.226170367E-1,1.257549561E0,1.916928755E0
1.267851071E1,1.652452964E0,7.731545216E-1,1.496356865E0,2.359544994E0
1.268852271E1,2.375535439E0,8.548997658E-1,1.695749257E0,3.041313495E0
1.269853471E1,3.043717822E0,1.231638794E0,1.613652449E0,3.658555251E0
1.270854671E1,3.455887468E0,1.558452541E0,1.342041242E0,4.021567755E0
1.271855871E1,3.291257942E0,1.556874962E0,8.832504295E-1,3.746514355E0
1.272857071E1,2.214298468E0,1.430828873E0,4.382856506E-1,2.672542475E0
1.273858271E1,9.978519094E-1,1.287710668E0,3.648969546E-2,1.629490318E0
1.274859371E1,2.496942347E-1,1.345858889E0,-6.666527510E-2,1.370447963E0
1.275860571E1,2.090631026E-1,1.584988375E0,4.781955287E-2,1.599431849E0
1.276861771E1,9.832169133E-1,2.143324379E0,1.323183972E-1,2.361792339E0
1.277862971E1,2.548578524E0,2.807411372E0,3.513059789E-1,3.807916359E0
1.278864171E1,4.469918039E0,3.286591864E0,7.254470891E-1,5.595366551E0
1.279865371E1,5.831140487E0,3.520302735E0,9.209750569E-1,6.873348950E0
1.280866571E1,6.246092239E0,3.179027070E0,1.000125818E0,7.079557403E0
1.281867771E1,5.884415054E0,2.388646066E0,8.741821289E-1,6.410629060E0
1.282868871E1,4.637137297E0,1.481677430E0,7.731995451E-1,4.929122422E0
1.283870071E1,3.122454674E0,4.815398437E-1,8.113391787E-1,3.261882137E0
1.284871271E1,1.755704852E0,-5.685557681E-1,8.138224912E-1,2.016943786E0
1.285872471E1,5.388671154E-1,-1.368298164E0,6.001890586E-1,1.588346480E0
1.286873671E1,-1.752077240E-1,-1.880438826E0,2.692689586E-1,1.907682808E0
1.287874871E1,-3.806069613E-1,-2.078996236E0,-1.517915256E-1,2.118992137E0
1.288876071E1,-4.434604365E-1,-2.092862324E0,-6.293276346E-1,2.229973797E0
1.289877271E1,-5.602305025E-1,-2.082730268E0,-1.228835054E0,2.482268957E0
1.290878371E1,-6.170379567E-1,-2.033458706E0,-1.948293425E0,2.882973711E0
1.291879571E1,-7.170177430E-1,-1.918110682E0,-2.566886741E0,3.283621564E0
1.292880771E1,-9.142969519E-1,-1.807577841E0,-2.869268482E0,3.512261122E0
1.293881971E1,-1.248366508E0,-1.812240996E0,-2.938249839E0,3.670960158E0
1.294883171E1,-1.629557607E0,-1.881452733E0,-2.767916939E0,3.722457060E0
1.295884371E1,-1.875350579E0,-1.914828056E0,-2.640067568E0,3.762108856E0
1.296885571E1,-1.981856443E0,-1.956720432E0,-2.526861380E0,3.760523666E0
1.297886671E1,-2.046331351E0,-2.031503397E0,-2.196348685E0,3.624696621E0
1.298887871E1,-2.137815717E0,-2.111603234E0,-1.843596105E0,3.525332730E0
1.299889071E1,-2.085102484E0,-2.099323497E0,-1.410188933E0,3.277719380E0
1.300890271E1,-2.082457788E0,-2.011891251E0,-1.119296386E0,3.104377754E0
1.301891471E1,-2.330134149E0,-1.983932789E0,-1.045671608E0,3.234029000E0
1.302892671E1,-2.594438821E0,-1.971748946E0,-1.054600161E0,3.425067620E0
1.303893871E1,-2.679492420E0,-1.845773608E0,-1.064712920E0,3.423473885E0
1.304895071E1,-2.655979596E0,-1.544067221E0,-1.132418415E0,3.274254520E0
1.305896171E1,-2.434063144E0,-1.202658824E0,-1.227482447E0,2.979557819E0
1.306897371E1,-2.080510080E0,-8.969125950E-1,-1.226047540E0,2.576075886E0
1.307898571E1,-1.666398574E0,-5.440711373E-1,-1.138356262E0,2.090156116E0
1.308899771E1,-1.187822683E0,-1.919868940E-1,-1.078134180E0,1.615597414E0
1.309900971E1,-6.849983901E-1,1.560996079E-1,-1.008092138E0,1.228755322E0
1.310902171E1,-1.743329805E-1,4.699804831E-1,-9.225140440E-1,1.049907522E0
1.311903371E1,1.561335218E-1,7.947208071E-1,-7.020260668E-1,1.071820618E0
1.312904571E1,4.002892739E-1,1.031506729E0,-3.509598237E-1,1.160780096E0
1.313905671E1,5.075704783E-1,1.247026327E0,8.974014223E-2,1.349353824E0
1.314906871E1,4.875063425E-1,1.418497095E0,6.144463246E-1,1.620907378E0
1.315908058E1,3.331848729E-1,1.560335344E0,1.170130178E0,1.978601319E0
1.316909258E1,3.590500313E-1,1.703260006E0,1.710211760E0,2.440253232E0
1.317910458E1,7.657665646E-1,2.056321319E0,2.365652475E0,3.226634072E0
1.318911658E1,1.272548838E0,2.428282002E0,2.710607209E0,3.855298363E0
1.319912858E1,1.629010307E0,2.712615727E0,2.711472012E0,4.167018015E0
1.320913958E1,1.561743354E0,2.912452508E0,2.317039748E0,4.036098996E0
1.321915158E1,7.448978519E-1,2.849758077E0,1.483063074E0,3.297797748E0
1.322916358E1,-1.820910662E-1,2.702106526E0,7.566413999E-1,2.811946487E0
1.323917558E1,-5.727148926E-1,2.748974884E0,2.816505839E-1,2.822090061E0
1.324918758E1,-7.183538318E-2,2.888540320E0,4.803164600E-1,2.929083373E0
1.325919958E1,1.315736958E0,3.122549983E0,1.170606142E0,3.584940847E0
1.326921158E1,3.184330494E0,3.481174337E0,1.932088890E0,5.098186240E0
1.327922358E1,4.792476767E0,3.497952338E0,2.537826079E0,6.453221314E0
1.328923458E1,5.293098999E0,3.147152143E0,2.634392846E0,6.697871997E0
1.329924658E1,4.000769030E0,2.351245521E0,2.137291222E0,5.109062742E0
1.330925858E1,1.734241478E0,1.272195666E0,1.298947847E0,2.512636231E0
1.331927058E1,-2.669856209E-1,2.435704458E-1,6.882430100E-1,7.773585561E-1
1.332928258E1,-1.609437338E0,-4.883424944E-1,4.508057088E-1,1.741261819E0
1.333929458E1,-2.145327635E0,-8.082278752E-1,5.004665498E-1,2.346514379E0
1.334930658E1,-1.794327466E0,-8.110573429E-1,8.182932723E-1,2.132376362E0
1.335931858E1,-1.051186118E0,-8.049610358E-1,1.085492901E0,1.712089180E0
1.336932958E1,-5.456837994E-1,-9.205721837E-1,1.014394706E0,1.474523846E0
1.337934158E1,-1.030103981E-2,-9.850219488E-1,8.063770853E-1,1.273035096E0
1.338935358E1,5.725844997E-1,-9.429886544E-1,6.785465723E-1,1.295185725E0
1.339936558E1,7.979706895E-1,-9.064675301E-1,5.757782489E-1,1.337894314E0
1.340937758E1,5.832849044E-1,-1.037709455E0,3.072374149E-1,1.229413283E0
1.341938958E1,4.336645961E-2,-1.334105986E0,9.381214321E-2,1.338103191E0
1.342940158E1,-6.380382317E-1,-1.730727886E0,6.440123320E-3,1.844601116E0
1.343941258E1,-1.318715529E0,-2.119915051E0,-3.527142808E-2,2.496856934E0
1.344942458E1,-1.954604325E0,-2.485982911E0,-1.705819917E-1,3.166968158E0
1.345943658E1,-2.427629453E0,-2.687931706E0,-3.079436123E-1,3.634995308E0
1.346944858E1,-2.728665165E0,-2.730932130E0,-3.747030276E-1,3.878660367E0
1.347946058E1,-2.880716745E0,-2.724032416E0,-4.079643291E-1,3.985638777E0
1.348947258E1,-2.987041930E0,-2.713605076E0,-4.593210089E-1,4.061655794E0
1.349948458E1,-3.023190587E0,-2.652670072E0,-4.940920615E-1,4.052217516E0
1.350949658E1,-3.039178628E0,-2.563159726E0,-6.540638418E-1,4.029167907E0
1.351950758E1,-2.985480723E0,-2.410473137E0,-8.755152941E-1,3.935734103E0
1.352951958E1,-2.764530816E0,-2.171808506E0,-1.061191727E0,3.672262341E0
1.353953158E1,-2.476803367E0,-1.903235950E0,-1.199086029E0,3.345843587E0
1.354954358E1,-2.214275079E0,-1.630355752E0,-1.270910302E0,3.029238683E0
1.355955558E1,-1.907820168E0,-1.394574966E0,-1.237950132E0,2.667796405E0
1.356956758E1,-1.630118939E0,-1.144231691E0,-1.057815106E0,2.255111243E0
1.357957958E1,-1.371281413E0,-8.968541229E-1,-7.804553550E-1,1.814902365E0
1.358959158E1,-1.037495447E0,-6.778068995E-1,-6.139171515E-1,1.383008772E0
1.359960258E1,-8.444478679E-1,-4.377336735E-1,-5.111863965E-1,1.079821514E0
1.360961458E1,-5.987963980E-1,-1.845907509E-1,-2.561641788E-1,6.769423596E-1
1.361962658E1,-2.521705306E-1,7.466485083E-2,8.861893862E-3,2.631413111E-1
1.362963858E1,2.762400091E-2,3.836954606E-1,3.787397991E-1,5.398417614E-1
1.363965058E1,5.325556308E-1,8.120782667E-1,8.481193346E-1,1.289338209E0
1.364966258E1,1.281074663E0,1.350891003E0,1.368864028E0,2.310811010E0
1.365967458E1,2.046196280E0,1.783972047E0,1.851507242E0,3.285963260E0
1.366968558E1,2.383303465E0,1.942081343E0,1.911085837E0,3.619953650E0
1.367969758E1,2.326157457E0,1.944878066E0,1.421287971E0,3.348674171E0
1.368970958E1,2.124786952E0,1.912792055E0,7.412130828E-1,2.953453888E0
1.369972158E1,1.580369074E0,2.024814767E0,1.000530227E-1,2.570496422E0
1.370973358E1,9.423706037E-1,2.174366078E0,-5.853372771E-1,2.441014118E0
1.371974558E1,4.380809981E-1,2.403168796E0,-1.128949993E0,2.691033873E0
1.372975758E1,-1.040950567E-1,2.586155071E0,-1.467080441E0,2.975123333E0
1.373976858E1,-4.339955485E-1,2.539608895E0,-1.541641357E0,3.002436269E0
1.374978058E1,-3.320195228E-1,2.403978635E0,-1.293061602E0,2.749792455E0
1.375979258E1,6.329868221E-1,2.471275409E0,-5.455558915E-1,2.608736418E0
1.376980458E1,2.929479015E0,2.887639264E0,4.308326434E-1,4.135930921E0
1.377981658E1,5.520863836E0,3.261167586E0,1.251472988E0,6.533095450E0
1.378982858E1,7.419626082E0,3.343713899E0,1.755583669E0,8.325463822E0
1.379984058E1,7.684518984E0,2.916697002E0,1.991537678E0,8.457255804E0
1.380985158E1,5.971423962E0,1.751810022E0,1.666238798E0,6.442289517E0
1.381986358E1,3.334672349E0,2.636608940E-1,1.021254805E0,3.497501697E0
1.382987558E1,1.344623373E0,-9.205990809E-1,5.735761875E-1,1.727571800E0
1.383988758E1,6.762304902E-2,-1.632784685E0,4.856755793E-1,1.704828282E0
1.384989958E1,-3.283702755E-1,-1.930153608E0,7.595229077E-1,2.100046436E0
1.385991158E1,-2.448053777E-2,-1.893935954E0,1.062420227E0,2.171711176E0
1.386992358E1,4.537550443E-1,-1.828879248E0,9.795213269E-1,2.123712545E0
1.387993558E1,6.972968388E-1,-1.817190079E0,3.225941035E-1,1.972934267E0
1.388994658E1,8.007036781E-1,-1.701052682E0,-4.486600730E-1,1.932874147E0
1.389995858E1,7.827860552E-1,-1.602503709E0,-1.079162267E0,2.084553512E0
1.390997058E1,6.003131658E-1,-1.564686842E0,-1.605250731E0,2.320657390E0
1.391998258E1,1.002961206E-1,-1.654611756E0,-1.889022977E0,2.513206554E0
1.392999458E1,-5.178896445E-1,-1.903476271E0,-1.997893016E0,2.807669515E0
1.394000658E1,-1.128061216E0,-2.164576085E0,-1.990589405E0,3.149659968E0
1.395001858E1,-1.532645854E0,-2.354602407E0,-1.909420112E0,3.396916392E0
1.396002958E1,-1.665701001E0,-2.479557990E0,-1.708123720E0,3.440996119E0
1.397004158E1,-1.765383748E0,-2.500741868E0,-1.465317505E0,3.393736151E0
1.398005358E1,-1.844141065E0,-2.508288869E0,-1.238766842E0,3.350658534E0
1.399006558E1,-1.874925486E0,-2.559697589E0,-1.117601132E0,3.363990133E0
1.400007758E1,-1.983063308E0,-2.487285086E0,-1.045427780E0,3.348439401E0
1.401008958E1,-2.127429308E0,-2.319123257E0,-1.063730149E0,3.322018960E0
1.402010158E1,-2.130898461E0,-2.185493914E0,-1.179280778E0,3.272279795E0
1.403011258E1,-1.985239057E0,-1.903693203E0,-1.210422757E0,3.005053273E0
1.404012458E1,-1.897530822E0,-1.593648101E0,-1.255262422E0,2.777772712E0
1.405013658E1,-1.728412389E0,-1.332218505E0,-1.258088382E0,2.518928722E0
1.406014858E1,-1.612065076E0,-1.059254106E0,-1.185977887E0,2.264357882E0
1.407016058E1,-1.490772189E0,-7.902067566E-1,-1.136169696E0,2.034136184E0
1.408017258E1,-1.234325590E0,-5.171172273E-1,-1.043741443E0,1.697164131E0
1.409018458E1,-9.133076030E-1,-2.352714926E-1,-1.023909587E0,1.392075535E0
1.410019558E1,-6.647553295E-1,7.566180110E-2,-9.513185978E-1,1.163026840E0
1.411020758E1,-3.961424285E-1,3.905799723E-1,-6.864499614E-1,8.835695150E-1
1.412021958E1,-1.128050691E-1,7.454802346E-1,-1.792946354E-1,7.749918258E-1
1.413023158E1,7.326795101E-2,1.048130947E0,3.057623085E-1,1.094274767E0
1.414024358E1,2.583586389E-1,1.316474876E0,7.684859584E-1,1.546100241E0
1.415025558E1,4.783975500E-1,1.617308859E0,1.165842854E0,2.050302836E0
1.416026737E1,5.949495149E-1,1.933232751E0,1.365452324E0,2.440453615E0
1.417027837E1,7.945208323E-1,2.252127614E0,1.489431422E0,2.814560020E0
1.418029037E1,1.355400960E0,2.606236163E0,1.690756612E0,3.389430133E0
1.419030237E1,2.077396438E0,3.043174616E0,1.843878525E0,4.120239765E0
1.420031437E1,2.560254829E0,3.427363581E0,1.647832933E0,4.584438819E0
1.421032637E1,2.288947531E0,3.492343689E0,1.088363153E0,4.315122199E0
1.422033837E1,1.214652632E0,3.210381010E0,4.545438337E-1,3.462446728E0
1.423035038E1,1.632489985E-1,2.926712698E0,-6.389954209E-2,2.931958493E0
1.424036137E1,-1.843644637E-1,2.853063508E0,-2.632859413E-1,2.871111479E0
1.425037337E1,3.210244185E-1,2.903091701E0,-6.740962565E-2,2.921565019E0
1.426038537E1,1.602005526E0,3.049037034E0,5.118730058E-1,3.482106046E0
1.427039737E1,3.059252120E0,3.070064791E0,1.015659458E0,4.451503733E0
1.428040937E1,4.285499196E0,2.862964599E0,1.440026397E0,5.351237770E0
1.429042137E1,4.348848515E0,2.468022603E0,1.702584506E0,5.282273467E0
1.430043337E1,2.778043731E0,1.595344963E0,1.423876972E0,3.505720776E0
1.431044437E1,6.231775331E-1,4.249037129E-1,9.219280069E-1,1.191152657E0
1.432045637E1,-1.222113680E0,-5.707794642E-1,4.719410545E-1,1.429013436E0
1.433046837E1,-2.584633040E0,-1.075956092E0,2.942166889E-1,2.815061798E0
1.434048037E1,-3.178070465E0,-1.317202270E0,3.651808369E-1,3.459553547E0
1.435049238E1,-2.862376953E0,-1.268696108E0,7.104466420E-1,3.210533611E0
1.436050437E1,-1.670010983E0,-9.499187744E-1,1.158553276E0,2.243552553E0
1.437051637E1,-6.192558056E-1,-6.807533115E-1,1.297531506E0,1.590751656E0
1.438052737E1,1.953279930E-1,-5.007491165E-1,1.246771973E0,1.357697704E0
1.439053937E1,7.123820704E-1,-3.977369642E-1,1.113417303E0,1.380355388E0
1.440055137E1,7.551643932E-1,-4.472277975E-1,7.860727751E-1,1.178217455E0
1.441056337E1,3.521012002E-1,-6.854468715E-1,4.548660153E-1,8.948272240E-1
1.442057537E1,-4.701114607E-1,-1.080158486E0,6.664729491E-2,1.179910591E0
1.443058737E1,-1.250394908E0,-1.526171232E0,-2.733706342E-1,1.991837734E0
1.444059937E1,-1.880061096E0,-1.868586520E0,-4.564342386E-1,2.689716996E0
1.445061037E1,-2.324305644E0,-2.124258948E0,-5.614163178E-1,3.198446668E0
1.446062237E1,-2.564465994E0,-2.283503773E0,-5.330399264E-1,3.474911060E0
1.447063438E1,-2.699858857E0,-2.367407225E0,-4.891349383E-1,3.623962997E0
1.448064637E1,-2.824816779E0,-2.421295164E0,-5.519987923E-1,3.761244844E0
1.449065837E1,-2.920665507E0,-2.469081534E0,-7.164922245E-1,3.891016800E0
1.450067037E1,-2.968810896E0,-2.473311995E0,-9.856262586E-1,3.987802588E0
1.451068237E1,-3.029092766E0,-2.470484281E0,-1.225905160E0,4.096527680E0
1.452069437E1,-3.025018426E0,-2.380838279E0,-1.260382537E0,4.050640879E0
1.453070537E1,-3.113338280E0,-2.224625820E0,-1.385785140E0,4.069672682E0
1.454071737E1,-3.238890864E0,-2.111513187E0,-1.578050215E0,4.176020168E0
1.455072937E1,-3.267040529E0,-1.926666913E0,-1.705864502E0,4.158794647E0
1.456074137E1,-3.012602448E0,-1.649793651E0,-1.837617035E0,3.895436942E0
1.457075337E1,-2.531521611E0,-1.259959783E0,-1.954571288E0,3.437506253E0
1.458076537E1,-1.782759919E0,-7.978525758E-1,-1.786134347E0,2.646710707E0
1.459077737E1,-9.922344893E-1,-3.732073098E-1,-1.563432760E0,1.888950760E0
1.460078837E1,-3.002434140E-1,3.666905880E-2,-1.351403804E0,1.384840413E0
1.461080037E1,3.643943864E-1,4.939400339E-1,-9.151307648E-1,1.101918483E0
1.462081237E1,8.831172591E-1,8.784915268E-1,-4.692083582E-1,1.331089756E0
1.463082437E1,1.191387731E0,1.134032977E0,4.942563683E-2,1.645563251E0
1.464083637E1,1.431955047E0,1.246481951E0,9.098945832E-1,2.105260236E0
1.465084837E1,1.595931439E0,1.310267472E0,1.744200748E0,2.702967676E0
1.466086037E1,1.862911797E0,1.426684951E0,2.353909512E0,3.323666696E0
1.467087137E1,2.266130526E0,1.629296821E0,2.774934475E0,3.935761302E0
1.468088337E1,2.605714592E0,1.800106854E0,2.637248333E0,4.121311926E0
1.469089537E1,2.819584690E0,2.046931275E0,2.061767415E0,4.048563986E0
1.470090737E1,2.772795855E0,2.289228197E0,1.394229104E0,3.856531782E0
1.471091937E1,2.285656718E0,2.467294040E0,9.244538578E-1,3.488034038E0
1.472093137E1,1.556884902E0,2.506850454E0,5.641750342E-1,3.004410636E0
1.473094337E1,9.211615831E-1,2.411791100E0,9.588468879E-2,2.583499341E0
1.474095437E1,7.123078108E-1,2.313496481E0,-2.945859405E-1,2.438530144E0
1.475096637E1,8.622988325E-1,2.315713161E0,-5.236672783E-1,2.525928371E0
1.476097837E1,1.959945756E0,2.386422955E0,-3.555381936E-1,3.108505958E0
1.477099037E1,3.868673996E0,2.548636411E0,2.071835151E-1,4.637360354E0
1.478100237E1,5.774061137E0,2.822013624E0,6.995032856E-1,6.464738800E0
1.479101437E1,6.814994162E0,2.887059220E0,1.004815066E0,7.469197393E0
1.480102637E1,6.302647678E0,2.385026055E0,9.240006986E-1,6.801874325E0
1.481103737E1,4.583197902E0,1.301489047E0,4.827589881E-1,4.788802876E0
1.482104937E1,2.686162339E0,6.793821394E-2,7.586236060E-2,2.688092039E0
1.483106137E1,1.366636385E0,-6.843896949E-1,-1.397250652E-2,1.528489285E0
1.484107337E1,7.176509964E-1,-1.007699790E0,3.127675653E-2,1.237521739E0
1.485108537E1,7.081276363E-1,-1.017583339E0,1.377829126E-1,1.247359103E0
1.486109737E1,1.032610098E0,-8.880254120E-1,2.362199110E-1,1.382270810E0
1.487110937E1,1.153670851E0,-8.649686712E-1,-1.452272952E-2,1.441991035E0
1.488112037E1,9.693075567E-1,-8.935504460E-1,-5.734180203E-1,1.437636173E0
1.489113237E1,8.794487160E-1,-8.171811318E-1,-1.193640663E0,1.692924416E0
1.490114437E1,7.089170104E-1,-6.531065065E-1,-1.772715572E0,2.017828520E0
1.491115637E1,8.043248588E-1,-4.574206638E-1,-2.025958482E0,2.227258385E0
1.492116837E1,9.334933609E-1,-5.002363157E-1,-1.851933650E0,2.133378651E0
1.493118037E1,8.755609024E-1,-7.048064178E-1,-1.601733046E0,1.956759498E0
1.494119237E1,4.227747416E-1,-8.611071700E-1,-2.372894837E0,2.559467512E0
1.495120337E1,-1.530080388E0,-4.862871981E-1,-1.436945645E0,2.154630832E0
1.496121537E1,-8.031881601E-2,-1.250765036E0,-2.381483227E0,2.691157121E0
1.497122737E1,-5.706411776E-1,-9.550040978E-1,-2.362035388E0,2.610914658E0
1.498123937E1,-8.851184687E-1,-9.221766597E-1,-2.462546686E0,2.774523504E0
1.499125137E1,-1.028246613E0,-1.102594253E0,-2.689367198E0,3.083131705E0
1.500126337E1,-1.375282663E0,-1.225754156E0,-2.344903046E0,2.982020447E0
1.501127537E1,-1.671815142E0,-1.227569717E0,-1.618327444E0,2.630755974E0
1.502128637E1,-1.878679399E0,-1.513913714E0,-1.862624699E0,3.048071815E0
1.503129837E1,-1.777567007E0,-1.562566057E0,-2.355969486E0,3.339453453E0
1.504131037E1,-1.442177734E0,-1.192926133E0,-2.710451088E0,3.293857082E0
1.505132237E1,-9.221351445E-1,-1.037289625E0,-2.810732591E0,3.134728168E0
1.506133437E1,-5.300793350E-1,-8.886422932E-1,-2.446255174E0,2.656093673E0
1.507134637E1,-2.460525888E-1,-5.968428433E-1,-2.049514575E0,2.148784133E0
1.508135837E1,-2.802785347E-1,-3.940847933E-1,-1.831681818E0,1.894443761E0
1.509136937E1,-2.672927459E-1,-2.843986291E-1,-1.708866316E0,1.752869670E0
1.510138137E1,-1.704314259E-1,-2.075375640E-1,-1.683271299E0,1.704558881E0
1.511139337E1,-1.388428666E-1,-1.208157545E-1,-1.543905838E0,1.554837298E0
1.512140537E1,-3.411889802E-1,2.401159108E-2,-1.101420132E0,1.153305156E0
1.513141737E1,-7.127627242E-1,2.420139170E-1,-5.152157128E-1,9.121670174E-1
1.514142937E1,-7.940954474E-1,3.149883378E-1,4.040414321E-1,9.450157201E-1
1.515144137E1,-6.462602940E-1,4.263596696E-1,1.634281572E0,1.808400175E0
1.516145258E1,-5.132712212E-1,5.147467661E-1,2.876980959E0,2.967394652E0
1.517146458E1,-4.903953056E-1,5.153566307E-1,3.812171767E0,3.877980607E0
1.518147658E1,-5.248041232E-1,4.311883003E-1,4.318787395E0,4.371872285E0
1.519148858E1,-5.353308655E-1,2.971151537E-1,4.386747243E0,4.429267200E0
1.520150058E1,-5.664645115E-1,2.851365477E-1,4.015611017E0,4.065380270E0
1.521151258E1,-6.402724528E-1,5.403803748E-1,3.261523681E0,3.367416886E0
1.522152358E1,-8.203823362E-1,9.573236883E-1,2.370025608E0,2.684495708E0
1.523153558E1,-1.140856239E0,1.284856058E0,1.329394299E0,2.172486421E0
1.524154758E1,-1.329435376E0,1.413571985E0,5.453978705E-1,2.015699138E0
1.525155958E1,-1.313543667E0,1.487435768E0,2.016125804E-1,1.994620205E0
1.526157158E1,-8.370742366E-1,1.449227137E0,8.428363752E-1,1.873853177E0
1.527158358E1,-3.371840760E-2,1.126039833E0,2.196856223E0,2.468862067E0
1.528159558E1,7.269338898E-1,7.700572515E-1,3.417837297E0,3.578132591E0
1.529160758E1,1.013179362E0,5.797485083E-1,3.994247630E0,4.161328500E0
1.530161858E1,6.829790542E-1,3.201765722E-1,3.602664860E0,3.680783547E0
1.531163058E1,2.228154615E-2,-2.216036260E-2,2.309844895E0,2.310058655E0
1.532164258E1,-6.827575909E-1,-3.015736556E-1,7.996032321E-1,1.093832678E0
1.533165458E1,-1.229064411E0,-5.544136924E-1,-2.240670580E-1,1.366813782E0
1.534166658E1,-1.523139159E0,-8.177032882E-1,-7.244992554E-1,1.874430776E0
1.535167858E1,-1.536032562E0,-1.029231577E0,-9.937021405E-1,2.099084947E0
1.536169058E1,-1.221026244E0,-1.203857503E0,-1.065334625E0,2.018691616E0
1.537170158E1,-5.556455545E-1,-1.258008567E0,-8.530923915E-1,1.618361568E0
1.538171358E1,1.345274752E-1,-1.169867054E0,-4.714943272E-1,1.268461062E0
1.539172558E1,5.637802009E-1,-1.026547705E0,-3.593078935E-1,1.225051210E0
1.540173758E1,7.471069300E-1,-9.477365935E-1,-5.137106395E-1,1.311591414E0
1.541174958E1,6.342002656E-1,-9.705553526E-1,-9.233987278E-1,1.482178424E0
1.542176158E1,1.864646374E-1,-9.973917335E-1,-1.626787196E0,1.917288688E0
1.543177358E1,-4.719778919E-1,-1.028803561E0,-2.352992669E0,2.611086823E0
1.544178458E1,-1.118854190E0,-1.007060689E0,-2.850386653E0,3.223462424E0
1.545179658E1,-1.638179326E0,-1.029900498E0,-3.102816800E0,3.656747002E0
1.546180858E1,-1.851981012E0,-9.892489010E-1,-3.042259526E0,3.696456422E0
1.547182058E1,-1.723646615E0,-9.007378435E-1,-2.672212636E0,3.304997230E0
1.548183258E1,-1.368942235E0,-7.530202192E-1,-2.087612109E0,2.607521162E0
1.549184458E1,-9.844535995E-1,-6.723789293E-1,-1.474772453E0,1.896363916E0
1.550185658E1,-6.252356069E-1,-6.517674941E-1,-1.052600559E0,1.386970932E0
1.551186758E1,-3.821018019E-1,-5.452031583E-1,-8.817004788E-1,1.104827591E0
1.552187958E1,-1.963038933E-1,-4.422752059E-1,-9.609770286E-1,1.075927240E0
1.553189158E1,-1.054171121E-1,-3.993683374E-1,-1.387646601E0,1.447815915E0
1.554190358E1,-2.916238873E-1,-3.910845870E-1,-1.997946226E0,2.056643082E0
1.555191558E1,-5.523699443E-1,-4.854615712E-1,-2.520444061E0,2.625533043E0
1.556192758E1,-6.806580019E-1,-5.569952381E-1,-2.704661760E0,2.844070014E0
1.557193958E1,-6.831923313E-1,-5.960581470E-1,-2.504194064E0,2.663273359E0
1.558195058E1,-4.726243016E-1,-6.481083065E-1,-2.262802876E0,2.400769660E0
1.559196258E1,-2.056163152E-1,-6.201340574E-1,-1.956984141E0,2.063160500E0
1.560197458E1,-2.809148580E-3,-5.815313244E-1,-1.715055009E0,1.810966664E0
1.561198658E1,1.459076187E-1,-5.878901714E-1,-1.487933366E0,1.606502284E0
1.562199858E1,2.081260863E-1,-4.975512743E-1,-1.118868808E0,1.242071314E0
1.563201058E1,2.222354177E-1,-2.599379718E-1,-1.039274170E0,1.094096490E0
1.564202258E1,2.421893334E-1,6.109287858E-2,-1.039624418E0,1.069208559E0
1.565203358E1,2.618301308E-1,3.746340305E-1,-8.317699349E-1,9.490768666E-1
1.566204558E1,2.841682488E-1,4.915099311E-1,-1.172436905E-1,5.797238040E-1
1.567205758E1,6.328476584E-1,4.656295699E-1,9.621289301E-1,1.242175162E0
1.568206958E1,9.814892073E-1,4.235138297E-1,2.139141281E0,2.391361631E0
1.569208158E1,1.187990499E0,3.783914512E-1,3.076993741E0,3.319998795E0
1.570209358E1,1.311425806E0,5.021641427E-1,3.918940755E0,4.162944044E0
1.571210558E1,1.269953113E0,9.443767834E-1,4.198618342E0,4.486983887E0
1.572211658E1,9.406817816E-1,1.397697380E0,3.538662992E0,3.919257066E0
1.573212858E1,4.353333914E-1,1.543410578E0,2.446167465E0,2.924955836E0
1.574214058E1,9.557887942E-2,1.434699145E0,1.495280392E0,2.074454244E0
1.575215258E1,4.129832867E-1,1.210733244E0,1.411447107E0,1.904891892E0
1.576216458E1,1.585491966E0,1.039318609E0,2.445299154E0,3.094100176E0
1.577217658E1,2.981006434E0,8.463868046E-1,3.808189228E0,4.909691964E0
1.578218858E1,3.971129494E0,7.373239535E-1,4.746135828E0,6.232120134E0
1.579219958E1,4.276669316E0,6.670813519E-1,4.849157921E0,6.499940808E0
1.580221158E1,3.588181307E0,2.319301012E-1,3.759404739E0,5.202111173E0
1.581222358E1,2.384230395E0,-3.827789095E-1,2.071693649E0,3.181664477E0
1.582223558E1,1.319943299E0,-8.755188024E-1,6.781355131E-1,1.722977440E0
1.583224758E1,5.408993152E-1,-1.223243362E0,-4.317771149E-1,1.405463578E0
1.584225958E1,1.704517449E-1,-1.304064454E0,-1.014750363E0,1.661130999E0
1.585227158E1,1.434605590E-1,-1.212704925E0,-1.056491881E0,1.614747430E0
1.586228258E1,6.034896657E-1,-1.031534210E0,-6.786190778E-1,1.374331276E0
1.587229458E1,1.339926450E0,-7.426390725E-1,-1.400454926E-1,1.538352503E0
1.588230658E1,1.796633315E0,-4.813857695E-1,9.752804875E-2,1.862561475E0
1.589231858E1,1.989056266E0,-3.450009263E-1,-1.429246616E-1,2.023807779E0
1.590233058E1,1.870442719E0,-2.606574717E-1,-7.216873294E-1,2.021714837E0
1.591234258E1,1.467025769E0,-2.287664652E-1,-1.422230542E0,2.056024907E0
1.592235458E1,1.004859944E0,-3.076918897E-1,-1.905699382E0,2.176260081E0
1.593236558E1,7.084052329E-1,-4.481300229E-1,-2.093939381E0,2.255491215E0
1.594237758E1,5.007675353E-1,-5.450967389E-1,-2.195002071E0,2.316448288E0
1.595238958E1,3.416896480E-1,-5.570098561E-1,-2.328653049E0,2.418602245E0
1.596240158E1,1.499455597E-1,-6.569732702E-1,-2.565151287E0,2.652187526E0
1.597241358E1,-1.901660711E-3,-7.262499118E-1,-2.802120227E0,2.894705566E0
1.598242558E1,-1.427387202E-1,-7.869568741E-1,-3.065103428E0,3.167733336E0
1.599243758E1,-3.747531675E-1,-8.595939106E-1,-3.271134165E0,3.402890000E0
1.600244858E1,-7.081530717E-1,-9.542392820E-1,-3.361327466E0,3.565189436E0
1.601246058E1,-1.038623082E0,-1.062366579E0,-3.341099609E0,3.656543074E0
1.602247258E1,-1.333466300E0,-1.165763478E0,-3.231288314E0,3.684882770E0
1.603248458E1,-1.536800009E0,-1.158670805E0,-2.948184258E0,3.520804272E0
1.604249658E1,-1.599578347E0,-1.059917765E0,-2.582274858E0,3.217175780E0
1.605250858E1,-1.704747391E0,-9.072317612E-1,-2.352874555E0,3.043887614E0
1.606252058E1,-1.725464661E0,-7.289437240E-1,-2.333450689E0,2.992253226E0
1.607253158E1,-1.532016255E0,-5.348413074E-1,-2.355763664E0,2.860550904E0
1.608254358E1,-1.337856682E0,-2.573184192E-1,-2.333550677E0,2.702134718E0
1.609255558E1,-1.232847706E0,1.897947729E-2,-2.229283127E0,2.547543316E0
1.610256758E1,-1.132600263E0,2.943780720E-1,-1.802668519E0,2.149198826E0
1.611257958E1,-1.104047432E0,5.659379697E-1,-1.203582684E0,1.728530530E0
1.612259158E1,-8.984385721E-1,9.245406890E-1,-7.435272646E-1,1.488220463E0
1.613260358E1,-5.721396728E-1,1.410153703E0,4.896458387E-2,1.522588192E0
1.614261458E1,-2.710902201E-1,1.655851366E0,9.446036553E-1,1.925515442E0
1.615262658E1,8.046908945E-2,1.731466682E0,1.537633529E0,2.317060425E0
1.616263871E1,2.886444385E-1,1.783710092E0,2.160640324E0,2.816612134E0
1.617265071E1,2.465984264E-1,1.782824531E0,2.955442407E0,3.460334364E0
1.618266271E1,-2.314444900E-2,1.718528840E0,3.641975691E0,4.027140918E0
1.619267471E1,-3.388230506E-1,1.672983123E0,4.045661613E0,4.391019412E0
1.620268671E1,-6.589858818E-1,1.768317297E0,4.046971974E0,4.465332083E0
1.621269771E1,-8.892901647E-1,1.976153361E0,3.726538709E0,4.310813131E0
1.622270971E1,-9.332617380E-1,2.060363499E0,3.440823287E0,4.117686257E0
1.623272171E1,-8.792773926E-1,1.821093096E0,3.321801458E0,3.888942494E0
1.624273371E1,-5.275365271E-1,1.474979152E0,3.590338345E0,3.917191305E0
1.625274571E1,7.255634487E-2,9.766139451E-1,4.559751152E0,4.663729172E0
1.626275771E1,7.453282070E-1,2.887755623E-1,6.038392122E0,6.091065989E0
1.627276971E1,1.159359022E0,-4.293557829E-1,7.347767894E0,7.451050447E0
1.628278071E1,9.651672895E-1,-1.040267027E0,7.519913431E0,7.652633625E0
1.629279271E1,1.736314608E-1,-1.465345572E0,6.101464283E0,6.277360268E0
1.630280471E1,-7.652240161E-1,-1.469622810E0,3.806809285E0,4.151765400E0
1.631281671E1,-1.432108536E0,-1.115547590E0,1.288285450E0,2.225996560E0
1.632282871E1,-1.825228539E0,-7.568366969E-1,-8.817794162E-1,2.163745813E0
1.633284071E1,-1.810339481E0,-4.473125821E-1,-2.082746056E0,2.795576634E0
1.634285271E1,-1.524403912E0,-2.850719360E-1,-2.375827215E0,2.837186679E0
1.635286371E1,-1.149235299E0,-2.346171892E-1,-1.933764263E0,2.261687694E0
1.636287571E1,-7.606144367E-1,-2.764604491E-1,-1.119107959E0,1.381074700E0
1.637288771E1,-4.677177568E-1,-4.196195841E-1,-4.995176929E-1,8.027193911E-1
1.638289971E1,-3.726139636E-1,-5.633198789E-1,-4.078590792E-1,7.889990370E-1
1.639291171E1,-4.515050358E-1,-6.744228235E-1,-6.549811238E-1,1.042930110E0
1.640292371E1,-6.161889410E-1,-7.476606613E-1,-1.081033815E0,1.451660905E0
1.641293571E1,-7.793679191E-1,-8.844758597E-1,-1.564131356E0,1.958626764E0
1.642294671E1,-8.075655319E-1,-9.729053485E-1,-1.905585946E0,2.286911608E0
1.643295871E1,-8.668429962E-1,-9.582162657E-1,-2.133329734E0,2.494131301E0
1.644297071E1,-9.963421583E-1,-9.612214422E-1,-2.297499669E0,2.682377506E0
1.645298271E1,-1.130012286E0,-9.981699979E-1,-2.415641491E0,2.847559468E0
1.646299471E1,-1.233028677E0,-1.056502991E0,-2.508291208E0,2.987989805E0
1.647300671E1,-1.289010504E0,-1.116106291E0,-2.644274055E0,3.146335426E0
