Time (s),Linear Acceleration x (m/s^2),Linear Acceleration y (m/s^2),Linear Acceleration z (m/s^2),Absolute acceleration (m/s^2),label
0.003442874993,0.1506035176,-0.8584110188,-0.06659510851,8.740628154E-1,0
0.01345487498,0.396338895,-1.314245918,-0.6430153817,1.515848156E0,0
0.02346587498,0.3851183805,-1.546234784,-1.411865768,2.128972315E0,0
0.033477875,0.2634156033,-1.231030976,-1.952432669,2.323105329E0,0
0.04348987498,0.4588555706,-0.7116576004,-2.148907886,2.309720779E0,0
0.05350187499,0.8565320161,-0.1335033354,-2.138936629,2.307925505E0,0
0.06351387498,1.492217621,0.2199930105,-2.197610514,2.665445990E0,0
0.07352587499,1.964500737,0.1513969848,-2.236240729,2.980428961E0,0
0.083536875,2.030339801,0.01319278032,-1.90756289,2.785901997E0,0
0.09354887498,1.597221919,-0.2796764177,-1.477079179,2.193421907E0,0
0.103560875,0.8097583839,-0.6806042075,-1.347907169,1.713413104E0,0
0.113572875,0.3201046515,-1.116063606,-1.194803089,1.666019023E0,0
0.123584875,-9.998738766e-05,-1.335424241,-0.9042251229,1.612755712E0,0
0.133595875,-0.2422893208,-1.092759821,-0.6643220508,1.301595916E0,0
0.143607875,-0.05764886856,-0.6158831316,-0.8679671234,1.065834111E0,0
0.1536205,0.5114176539,-0.2076501229,-1.560268686,1.655024158E0,0
0.1636325,0.8672461617,0.02463812023,-2.482220228,2.629475271E0,0
0.1736445,0.3885007024,0.2705094454,-3.238963369,3.273376218E0,0
0.1836565,-0.2845988962,0.4768024296,-3.66747306,3.709271591E0,0
0.1936675,-0.6408890417,0.5277553591,-3.354073995,3.455296926E0,0
0.2036795,-0.7172048539,0.5226720822,-2.503423401,2.656068078E0,0
0.2136915,-0.5658210254,0.3442603764,-1.634212575,1.763326226E0,0
0.2237035,-0.3217985898,0.2539445758,-0.8712088197,9.628327932E-1,0
0.2337155,-0.3164970656,0.274889887,0.1846948314,4.580906277E-1,0
0.2437275,-0.656488536,0.3749573815,1.283777246,1.489850413E0,0
0.2537385,-1.103789862,0.6684691885,1.862616513,2.265953086E0,0
0.2637505,-1.785006419,1.014638096,1.910833238,2.804821215E0,0
0.2737625,-2.253063753,1.269942734,1.80308718,3.152804181E0,0
0.2837745,-2.281970779,1.30599345,1.72213131,3.143047212E0,0
0.2937865,-2.031553975,1.222581457,1.678033948,2.904774501E0,0
0.3037985,-1.621621035,1.144572876,1.806953943,2.684172945E0,0
0.3138095,-1.346081376,1.230379304,2.168574995,2.833458278E0,0
0.3238215,-1.327437529,1.402854916,2.528896211,3.182044682E0,0
0.3338335,-1.5305239,1.351791182,2.449996807,3.189408591E0,0
0.3438455,-1.909605322,1.121828084,1.987411882,2.975717851E0,0
0.3538575,-2.383128341,0.8148103783,1.084105942,2.741988756E0,0
0.3638695,-2.643194659,0.7259715843,0.3621730292,2.764901816E0,0
0.3738805,-2.750961183,0.8733699507,0.4547367918,2.921874065E0,0
0.3838925,-2.451430983,1.13923583,1.257857709,2.981539561E0,0
0.3939045,-1.588649463,1.16905546,2.447615236,3.143456398E0,0
0.4039165,-0.7432606316,0.7566586491,3.350014274,3.513910117E0,0
0.4139285,0.1937501219,0.1802904162,3.713055614,3.722475754E0,0
0.4239405,0.7048129959,-0.3307989165,3.095380896,3.191797640E0,0
0.4339515,-0.007938910872,-0.8245989096,1.672669712,1.864899556E0,0
0.4439635,-1.594833039,-0.7984910917,0.6878687882,1.911607679E0,0
0.4539755,-2.275080859,-0.4840088305,-0.05439957082,2.326632067E0,0
0.4639875,-1.775287908,0.001713526547,-0.3967604792,1.819084652E0,0
0.4739995,-0.736830887,0.9910419497,-0.3690949631,1.288920088E0,0
0.4840115,0.1768408513,2.279905397,-0.6536386031,2.378336546E0,0
0.4940225,0.3386917806,3.330058311,-1.464719335,3.653683512E0,0
0.5040345,-0.4680425696,3.275159388,-1.810966303,3.771648421E0,0
0.5140465,-1.265679675,2.389360011,-1.439766927,3.063317664E0,0
0.5240585,-1.026158719,0.2285887098,-0.9875070155,1.442367713E0,0
0.5340705,-1.485803371,-1.169651291,0.3104848123,1.916271541E0,0
0.5440825,0.2125248004,-2.177483813,-1.514520655,2.660897473E0,0
0.5540945,0.9628653869,-4.061221346,-3.310819218,5.327490260E0,0
0.5641055,1.390957586,-5.436573299,-4.606799603,7.260419741E0,0
0.5741175,1.12169104,-4.357204186,-3.694270849,5.821602547E0,0
0.5841295,-0.4979005723,-4.16857681,-2.984698366,5.151054449E0,0
0.5941415,-1.535280317,-3.731831024,-2.375454748,4.682566999E0,0
0.6041535,-1.208946189,-2.783626361,-1.124424248,3.236426500E0,0
0.6141655,-0.6289265156,-1.680904054,0.4366525233,1.847065896E0,0
0.6241765,-0.1020901195,-0.5588067786,1.502992285,1.606758606E0,0
0.6341885,0.8248902471,0.6828174517,2.440516132,2.665108362E0,0
0.6442005,2.173906633,1.51555035,4.556020043,5.270681317E0,0
0.6542125,3.805221182,1.840474861,1.336656541,4.433250124E0,0
0.6642245,4.91366265,2.084620088,-1.471187525,5.536615779E0,0
0.6742365,3.250221306,2.071618804,-3.144520896,4.974289364E0,0
0.6842485,1.020178771,2.049816145,-4.152497844,4.741914097E0,0
0.6942595,-0.5647887725,1.521309126,-3.92892663,4.250862534E0,0
0.7042715,-1.921674268,0.7687107839,-1.777362354,2.728143178E0,0
0.7142835,-0.6282819331,-0.5098337893,1.903013756,2.067880566E0,0
0.7242955,2.161116579,-0.4894084418,0.4281009704,2.256815441E0,0
0.7343075,2.522830018,-0.8359423618,-0.805594874,2.777130539E0,0
0.7443195,-0.04832212105,-2.244854409,0.8074180359,2.386132902E0,0
0.7543315,-4.056030188,-3.020716045,-1.005735126,5.156317431E0,0
0.7643425,-5.755830688,-3.413083803,-0.6873922402,6.726903898E0,0
0.7743545,-3.452299617,-3.470485919,-1.036457566,5.003687585E0,0
0.7843665,1.492688029,-2.234707004,-6.060207499,6.629339928E0,0
0.7943785,4.99459864,1.928559657,-6.800086101,8.654855799E0,0
0.8043905,4.088591285,3.848112847,-1.298688816,5.762911055E0,0
0.8144025,-1.681859489,3.118611006,2.958626216,4.616043223E0,0
0.8244145,-1.751678752,2.028530087,2.823335094,3.892882457E0,0
0.8344255,-0.1870713591,-0.5030692917,2.277551892,2.339939535E0,0
0.8444375,-0.1468071032,-1.147445028,1.018713605,1.541414879E0,0
0.8544495,-0.7649846457,-0.2456272039,0.07271538913,8.067352473E-1,0
0.8644615,-1.238901913,1.036179531,-0.06856035769,1.616553894E0,0
0.8744735,-0.1387866419,2.1051444,0.4513079846,2.157446077E0,0
0.8844855,1.810621025,2.38553564,1.457063575,3.330489911E0,0
0.8944975,3.383704468,1.662469537,2.492051151,4.519245494E0,0
0.9045085,4.15432773,0.6375283545,3.467431042,5.448665829E0,0
0.9145205,4.688723187,-0.1266696945,4.39897611,6.430486852E0,0
0.9245325,4.488968852,-0.7142675051,5.158817106,6.875639124E0,0
0.9345445,3.987596422,-1.010858748,5.272352493,6.687335900E0,0
0.9445565,3.101775995,-1.479107578,3.9262182,5.217658757E0,0
0.9545685,2.124097857,-1.801628592,2.361712621,3.651759000E0,0
0.9645805,0.6275875032,-1.862492844,0.34910918,1.996152020E0,0
0.9745915,-0.3139919722,-1.237993256,-0.5257956648,1.381187656E0,0
0.9846035,-0.2754477113,-0.6749920499,-1.639187971,1.793996352E0,0
0.9946155,0.02841527537,-0.3519743156,-2.245911439,2.273502043E0,0
1.0046275,0.3976051095,0.06216525793,-2.064607993,2.103463930E0,0
1.0146395,1.023170938,0.2270976698,-1.177506441,1.576379884E0,0
1.0246515,1.446876264,-0.278081882,-0.5015390754,1.556381027E0,0
1.0346635,1.604604321,-1.036096793,-0.2709950566,1.929168192E0,0
1.0446755,1.740364097,-1.340270121,-0.4253937095,2.237442959E0,0
1.0546865,1.554955906,-1.306911755,-1.067828463,2.294812374E0,0
1.0646985,1.233411085,-0.9829391706,-1.980778216,2.531986307E0,0
1.0747105,0.9901397243,-0.6237944144,-2.858695546,3.088953928E0,0
1.0847225,0.9288448244,-0.5293063331,-3.170494228,3.345885765E0,0
1.0947345,0.6302918404,-0.3730470961,-2.946808408,3.036463689E0,0
1.1047465,0.414009473,-0.2690368241,-2.483215424,2.531826119E0,0
1.1147585,-0.1970654932,-0.4518009049,-1.553350845,1.629680249E0,0
1.1247695,-1.069471823,-0.9717025763,-1.76358456,2.279957538E0,0
1.1347815,-2.67949242,-1.776364819,-2.939987631,4.356452556E0,0
1.1447935,-4.241457675,-2.370373517,-3.059191893,5.741714802E0,0
1.154805583,-3.956270257,-2.396256802,-2.891324764,5.454711715E0,0
1.164817583,-2.766954779,-1.672536396,-2.928147604,4.362048273E0,0
1.174829583,-1.43735115,-0.5905641031,-2.092461789,2.606365405E0,0
1.184841583,0.3963169679,0.66503775,-1.152681502,1.388530516E0,0
1.194853583,0.8681980884,1.395353231,-1.471664658,2.206031601E0,0
1.204864583,0.06719386339,1.201570657,-1.657205581,2.048076511E0,0
1.214876583,-0.6598445454,0.6893680143,-0.9807224911,1.368371181E0,0
1.224888583,-0.9778620332,0.1220892781,-0.5947583109,1.151024499E0,0
1.234900583,-1.114995613,-0.3249139863,-0.2700220799,1.192349042E0,0
1.244912583,-0.9562545249,-0.2059237325,0.37477144,1.047511781E0,0
1.254924583,-0.5334800756,0.4674422067,0.9166481173,1.159028463E0,0
1.264936583,-0.1375952169,1.233071947,1.036926513,1.616977261E0,0
1.274948583,0.01114450067,1.445908842,1.04968923,1.786791555E0,0
1.284960583,0.1129053488,1.212605522,1.440778495,1.886531856E0,0
1.294971583,1.29236359,2.115650677,1.502943168,2.899141184E0,0
1.304983583,0.9872462296,2.997934123,2.044298859,3.760508204E0,0
1.314995583,0.03494296074,2.919971443,2.325244122,3.732856073E0,0
1.325007583,-0.2232855776,2.523724349,2.359990032,3.462454908E0,0
1.335019583,-0.2043186718,2.471835573,2.46721101,3.498406407E0,0
1.345031583,-0.7574281427,2.478036545,2.225655515,3.415831521E0,0
1.355043583,-1.322996861,1.940458156,1.604951354,2.844568051E0,0
1.365055583,-0.6818356311,1.634319579,1.438857685,2.281712460E0,0
1.375066583,0.7270922032,1.728107164,1.925344273,2.687371952E0,0
1.385078583,2.52793756,1.906515069,3.166423981,4.477891116E0,0
1.395090583,4.179301773,2.216043862,4.834315934,6.763728576E0,0
1.405102583,3.831113822,1.657006191,5.259357056,6.714457482E0,0
1.415114583,2.430043184,0.5133375871,4.74019038,5.351451223E0,0
1.425126583,0.5891116548,-1.120580288,3.39512525,3.623482881E0,0
1.435138583,-1.495602574,-2.526838576,1.763456506,3.425130523E0,0
1.445150583,-2.435457121,-1.046418883,0.2713920826,2.664600819E0,0
1.455161583,-2.77148491,-0.1875161129,-1.114186943,2.992942271E0,0
1.465173583,-2.51772686,-0.3246175325,-1.325712308,2.863885160E0,0
1.475185583,-1.752158516,-0.6669848728,0.7669938952,2.025637658E0,0
1.485197583,-0.6653973538,-1.113430898,1.595608672,2.056319294E0,0
1.495209583,-0.282878353,-0.9549719381,1.162727311,1.530988689E0,0
1.505221583,0.28009157,-0.3439238691,0.7166993621,8.428480830E-1,0
1.515233583,0.407636885,0.05224662602,0.9405275613,1.026396431E0,0
1.525245583,-0.001274693012,-0.1477269799,0.3442752868,3.746336324E-1,0
1.535257583,-0.7065985894,-0.8712380558,-0.3915687364,1.188134417E0,0
1.545268583,-1.440780249,-1.444275715,-0.5109715113,2.103062517E0,0
1.555280583,-1.883004584,-1.555592083,-0.4364750603,2.481145596E0,0
1.565292583,-2.193244983,-1.554953567,-0.5515810087,2.744530153E0,0
1.575304583,-2.149445245,-1.836654291,-0.6368304893,2.898097120E0,0
1.585316583,-2.098042957,-2.140663311,-0.9147349083,3.133841670E0,0
1.595328583,-2.156817999,-2.101617944,-1.452630216,3.343470713E0,0
1.605340583,-2.035449098,-1.988048644,-1.671388587,3.299837913E0,0
1.615352583,-1.420942985,-2.416481152,-0.8884952357,2.940728465E0,0
1.625364583,-2.725970183,-1.68915009,-0.715186395,3.285670867E0,0
1.635375583,-3.011964517,-0.8311021829,-0.7538493544,3.214179513E0,0
1.645387583,-2.536004671,-0.5014443505,-0.6895001614,2.675476893E0,0
1.655399583,-2.129108044,-0.5243788844,-1.347682343,2.573775821E0,0
1.665411583,-1.7493577,-0.640114578,-2.25468811,2.924656819E0,0
1.675423583,-1.582025591,-0.4708850473,-2.948423994,3.379014908E0,0
1.685435583,-1.510481399,-0.1778506655,-3.567650564,3.878313481E0,0
1.695447583,-1.250683175,0.09691058278,-3.771441524,3.974590701E0,0
1.705459583,-1.036473938,0.2461636859,-3.374721391,3.538872596E0,0
1.715471583,-0.6841604841,0.2749676549,-2.220913423,2.340115213E0,0
1.725482583,-0.2666622698,0.2962456727,-0.8565653452,9.447615865E-1,0
1.735494583,-0.151739924,0.3811449051,0.1360413194,4.322079173E-1,0
1.745506583,-0.07984840751,0.758123669,0.8130167449,1.114505941E0,0
1.755518583,0.4036713034,1.413660863,1.076699274,1.822270255E0,0
1.765530583,1.144155677,1.578199173,0.7300106947,2.081518786E0,0
1.775542583,1.593430585,1.35251419,0.9211083734,2.284021957E0,0
1.785554583,2.309798702,1.788224727,0.7149908057,3.007345935E0,0
1.795566583,2.531329238,2.156734968,0.733051393,3.405363091E0,0
1.805578583,2.385306137,2.152739566,0.9917133562,3.362657935E0,0
1.815590583,2.068374769,2.119064866,1.134750431,3.171162032E0,0
1.825601583,1.109191666,2.321421797,0.9314819187,2.736231693E0,0
1.835613583,0.2565886867,2.389555308,0.4271104521,2.440949746E0,0
1.845625583,0.04668183088,2.452015851,0.01182219297,2.452488673E0,0
1.855637583,0.3578952062,2.391459162,-0.3017636901,2.436847805E0,0
1.865649583,1.120343476,2.242935791,-0.1126596196,2.509705691E0,0
1.875661583,2.38614989,2.18805441,0.6602779703,3.304127781E0,0
1.885673583,4.112477746,2.222948838,1.545358871,4.923627605E0,0
1.895685583,5.901804673,2.2897065,2.016147293,6.643711625E0,0
1.905697583,6.905042453,2.221206953,1.948554211,7.510674744E0,0
1.915709583,6.325979238,1.73090915,1.550544766,6.739306261E0,0
1.925720583,4.792235861,0.7939723635,0.9001009355,4.940252864E0,0
1.935732583,3.131390389,-0.2233776712,0.3339922272,3.157064167E0,0
1.945744583,1.950591381,-1.06205843,0.02805654868,2.221162311E0,0
1.955756583,1.117359642,-1.658458055,0.006461758018,1.999754346E0,0
1.965768583,0.2761908925,-2.018751204,-0.02968134373,2.037773004E0,0
1.975780583,-0.4827461243,-2.395734646,-0.2501697595,2.456658955E0,0
1.985792583,-0.9255581045,-2.682770954,-0.5581132257,2.892301535E0,0
1.995804583,-1.069428261,-2.756654617,-0.9764475918,3.113883649E0,0
2.005816583,-0.9329431379,-2.640717779,-1.53902312,3.195679184E0,0
2.015828583,-0.7388676184,-2.45621649,-1.918493675,3.203052105E0,0
2.025839583,-0.5539663804,-2.245802681,-1.964448405,3.034726671E0,0
2.035851583,-0.626903379,-2.215567898,-1.891730384,2.979998793E0,0
2.045863583,-0.8661755365,-2.326001337,-1.719022345,3.019201898E0,0
2.055875583,-1.194924712,-2.437867928,-1.357467951,3.035418313E0,0
2.065887583,-1.792790233,-2.517723352,-1.201457513,3.316101303E0,0
2.075899583,-2.404973246,-2.652460157,-1.220671172,3.782787241E0,0
2.085911583,-2.769992115,-2.719067545,-1.243985775,4.075988867E0,0
2.095923583,-2.78101821,-2.652776492,-1.194770345,4.024768512E0,0
2.105935583,-2.625913798,-2.43812462,-1.083841794,3.743606279E0,0
2.115947583,-2.563304152,-2.183169646,-0.9654573114,3.502694063E0,0
2.125959583,-2.803801886,-2.003892844,-0.9054927993,3.563258166E0,0
2.135970583,-3.028409227,-1.809502745,-0.8759085193,3.634938564E0,0
2.145982583,-3.041898168,-1.594985359,-0.8039917137,3.527538156E0,0
2.1559945,-2.715848653,-1.301027702,-0.6808807808,3.087410828E0,0
2.1660065,-2.21443003,-0.9047642362,-0.6515230805,2.479270257E0,0
2.1760185,-1.415003968,-0.3108333063,-0.6012697703,1.568559502E0,0
2.1860305,-0.6338843697,0.2283448809,-0.563047691,8.780509559E-1,0
2.1960425,-0.1102814108,0.5137077159,-0.6330593276,8.226917522E-1,0
2.2060545,0.4076462406,0.8147235471,-0.4741074479,1.026999410E0,0
2.2160665,0.7955698228,1.14528419,-0.2902820975,1.424384398E0,0
2.2260785,0.9613839948,1.422331699,-0.1964934893,1.727974635E0,0
2.2360905,1.239756483,1.644638745,-0.04297761977,2.060019373E0,0
2.2461015,1.691214741,1.87002435,0.301236856,2.539279822E0,0
2.2561135,2.051172845,2.167412569,0.9011930493,3.117232137E0,0
2.2661255,2.06418407,2.252161528,1.331893984,3.332720961E0,0
2.2761375,1.770987135,2.091810994,1.400853707,3.078061042E0,0
2.2861495,1.456244965,1.96093569,1.372185101,2.801572796E0,0
2.2961615,1.331849545,1.998272501,1.165398611,2.669282698E0,0
2.3061735,1.455881268,2.215311205,0.9649933349,2.821064718E0,0
2.3161855,1.83890196,2.584105037,0.788627716,3.268194140E0,0
2.3261975,1.938295856,2.89372797,0.5648948264,3.528421538E0,0
2.3362095,1.437132756,2.955112624,0.3392732862,3.303505342E0,0
2.3462205,0.673731975,2.763796406,0.1581721535,2.849123335E0,0
2.3562325,0.3837527633,2.411212226,0.2240240809,2.451815117E0,0
2.3662445,0.7929093397,2.189153686,0.7352819596,2.441667185E0,0
2.3762565,1.702941332,2.190292139,1.56473362,3.185244125E0,0
2.3862685,2.840824116,2.269168739,2.476597545,4.399198089E0,0
2.3962805,3.672504004,2.291512704,3.066866656,5.305090689E0,0
2.4062925,3.695492333,2.088017321,3.088329738,5.249215226E0,0
2.4163045,2.601996932,1.571130474,2.575645285,3.984066721E0,0
2.4263165,0.8200866133,0.7455433846,1.710321396,2.038032450E0,0
2.4363285,-0.8411172938,0.1123343682,0.9911034916,1.304754170E0,0
2.4463405,-1.940106153,-0.2313292998,0.6737926398,2.066765989E0,0
2.4563515,-2.135481509,-0.3000563031,0.6502061413,2.252350569E0,0
2.4663635,-1.627246787,-0.2583989847,0.8735354269,1.864877015E0,0
2.4763755,-0.7842730021,-0.1859122217,1.097093923,1.361345868E0,0
2.4863875,-0.03044996023,-0.1873635006,1.15312589,1.168645199E0,0
2.4963995,0.6294913566,-0.260258984,1.127429132,1.317228361E0,0
2.5064115,1.074815885,-0.3659678721,1.009556281,1.519330627E0,0
2.5164235,1.043477148,-0.5579863411,0.8024765539,1.429741912E0,0
2.5264355,0.6072543955,-0.9324484634,0.4746885149,1.209771559E0,0
2.5364475,-0.1581689376,-1.429999153,0.09193445608,1.441654235E0,0
2.5464595,-0.9997528392,-1.937477245,-0.2636306347,2.196093105E0,0
2.5564715,-1.668471996,-2.323613334,-0.4576751639,2.896971571E0,0
2.5664835,-2.084168683,-2.54422995,-0.678081134,3.358073728E0,0
2.5764945,-2.511336438,-2.683373217,-0.9270409584,3.790343977E0,0
2.5865065,-3.020372813,-2.808332893,-1.148100062,4.281065209E0,0
2.5965185,-3.307914321,-2.860347385,-1.355743607,4.578419492E0,0
2.6065305,-3.300782472,-2.771825218,-1.500921786,4.564093138E0,0
2.6165425,-3.095021877,-2.563959625,-1.548268299,4.306992466E0,0
2.6265545,-2.895434187,-2.341258476,-1.526109252,4.024181884E0,0
2.6365665,-2.790929241,-2.180155406,-1.477744008,3.837458921E0,0
2.6465785,-2.572283721,-2.01444473,-1.394155867,3.552224893E0,0
2.6565905,-2.358431164,-1.812485409,-1.315576159,3.252390128E0,0
2.6666025,-2.38629724,-1.636129877,-1.427021897,3.226100895E0,0
2.6766145,-2.537024426,-1.503372939,-1.640179074,3.374434845E0,0
2.6866265,-2.545757242,-1.353997044,-1.717818988,3.356350698E0,0
2.6966375,-2.421948883,-1.157782028,-1.648138596,3.150024833E0,0
2.7066495,-2.174854905,-0.8970476657,-1.644377375,2.870307531E0,0
2.7166615,-1.734095297,-0.6378014195,-1.558860384,2.417420701E0,0
2.7266735,-1.092272748,-0.3469258296,-1.477396098,1.869790501E0,0
2.7366855,-0.3116565943,0.04570476115,-1.239163283,1.278571234E0,0
2.7466975,0.2442481381,0.4536398542,-0.6391822395,8.209751552E-1,0
2.7567095,0.4425634736,0.7160693246,0.05585231155,8.436451781E-1,0
2.7667215,0.3135674644,0.8351583964,0.6832717073,1.123687825E0,0
2.7767335,0.1457067668,0.9168714809,1.437880615,1.711544460E0,0
2.7867455,0.3452330607,1.076638463,2.313343869,2.574858462E0,0
2.7967575,0.8448636049,1.275101148,2.793796715,3.185118135E0,0
2.8067695,1.421231253,1.463199643,2.83151418,3.489745553E0,0
2.8167805,2.174505242,1.732108414,2.524209668,3.755037556E0,0
2.8267925,2.87878541,2.124347826,2.07556509,4.136209565E0,0
2.8368045,3.181526754,2.529954557,1.643433634,4.384479064E0,0
2.8468165,2.862809647,2.730046277,1.172566128,4.125983892E0,0
2.8568285,2.036716189,2.616813192,0.7012119882,3.389339518E0,0
2.8668405,1.316518146,2.334932374,0.230410556,2.690393697E0,0
2.8768525,1.204949178,2.183922182,0.05916841373,2.494978862E0,0
2.8868645,1.628161876,2.258235031,0.2674528134,2.796795945E0,0
2.8968765,2.27557261,2.243374332,0.5837284157,3.248337723E0,0
2.9068885,3.005187594,2.006429951,0.6766082203,3.676236161E0,0
2.9169005,3.767141774,1.749574047,0.6290298651,4.200957637E0,0
2.9269125,4.46306861,1.615203862,0.5718495047,4.780677441E0,0
2.9369235,4.82611229,1.423765436,0.5254945332,5.059111815E0,0
2.9469355,4.547438085,0.9843150204,0.2877017212,4.661635065E0,0
2.9569475,3.576140136,0.305039885,0.001674350202,3.589126692E0,0
2.9669595,2.508861312,-0.3304442829,-0.1074133515,2.532807954E0,0
2.9769715,1.745970408,-0.7962814289,-0.05058835566,1.919644748E0,0
2.9869835,1.287935786,-1.126768396,0.04040192127,1.711729513E0,0
2.9969955,0.9712716365,-1.372080728,0.07202571005,1.682605663E0,0
3.0070075,0.6873887318,-1.602223043,-0.057081981,1.744385365E0,0
3.0170195,0.3936187702,-1.775822783,-0.3165787804,1.846267699E0,0
3.0270315,0.1339842689,-1.857798407,-0.5540529191,1.943281077E0,0
3.0370435,-0.1316167313,-1.877652043,-0.8516721028,2.065973265E0,0
3.0470555,-0.4907012612,-1.946819927,-1.218599649,2.348591207E0,0
3.0570665,-0.938554126,-2.004782206,-1.555560215,2.705513468E0,0
3.0670785,-1.33935854,-2.024571522,-1.681295671,2.952884400E0,0
3.0770905,-1.628114514,-1.997878983,-1.661937733,3.066645452E0,0
3.0871025,-1.82229119,-1.978843957,-1.734997084,3.201059742E0,0
3.0971145,-2.050959422,-2.008794565,-1.94435591,3.467305879E0,0
3.1071265,-2.334638844,-2.064979291,-2.160672483,3.792516787E0,0
3.1171385,-2.604787808,-2.033532965,-2.300527503,4.026487630E0,0
3.1271505,-2.680953054,-1.942909893,-2.278189239,4.019024053E0,0
3.1371625,-2.641479086,-1.773082777,-2.1619922,3.846484703E0,0
3.1471745,-2.678135866,-1.612890118,-2.034759419,3.730157120E0,0
3.157186333,-2.660594219,-1.501336353,-1.901113411,3.598194637E0,0
3.167198333,-2.53690982,-1.34386148,-1.655671418,3.314079504E0,0
3.177210333,-2.450006163,-1.140808146,-1.512356601,3.096965597E0,0
3.187221333,-2.44777428,-0.9382149875,-1.426115432,2.984233824E0,0
3.197233333,-2.435018579,-0.8042161006,-1.174320293,2.820479954E0,0
3.207245333,-2.293240557,-0.6482281744,-0.8650490704,2.535243955E0,0
3.217257333,-2.04324519,-0.4587123138,-0.7438061768,2.222277103E0,0
3.227269333,-1.825046398,-0.2079024303,-0.8126273203,2.008576844E0,0
3.237281333,-1.500050551,0.04910667121,-0.8948439963,1.747371997E0,0
3.247293333,-1.057559583,0.3464574677,-0.8158748639,1.379897402E0,0
3.257305333,-0.5187445074,0.7091836435,-0.5829106826,1.054429783E0,0
3.267317333,-0.01133775115,1.015909281,-0.3760350233,1.083329382E0,0
3.277329333,0.165721786,1.20242552,-0.05318802774,1.214956710E0,0
3.287341333,0.1256227505,1.354668889,0.4114562863,1.421339210E0,0
3.297353333,0.254383117,1.50737068,0.9877739409,1.820047938E0,0
3.307364333,0.7761149669,1.779903554,1.527414058,2.470506994E0,0
3.317376333,1.557650303,2.208385763,2.029562121,3.379698884E0,0
3.327388333,2.39643982,2.715414789,2.561521921,4.435966167E0,0
3.337400333,3.009941965,3.229285058,2.830151778,5.243833684E0,0
3.347412333,2.902497624,3.529709736,2.707039238,5.311440926E0,0
3.357424333,2.031099354,3.515352482,2.366245675,4.699168677E0,0
3.367436333,0.9624177825,3.322293209,1.916628706,3.954408394E0,0
3.377448333,0.5504902107,3.178982631,1.572784651,3.589236910E0,0
3.387460333,1.197769382,3.199527408,1.665636681,3.800785798E0,0
3.397472333,2.66117017,3.16898857,2.316327118,4.742329232E0,0
3.407484333,4.293009945,2.943062097,3.101660221,6.059030039E0,0
3.417496333,5.428850881,2.710283858,3.824246559,7.172372148E0,0
3.427507333,5.640729418,2.3706191,4.198880005,7.420798918E0,0
3.437519333,4.522927727,1.682074374,3.852523694,6.174802688E0,0
3.447531333,2.361583983,0.6298486215,2.832750866,3.741425619E0,0
3.457543333,0.05178118765,-0.4294727272,1.600123308,1.657565297E0,0
3.467555333,-1.837419106,-1.189171051,0.7263993081,2.306055662E0,0
3.477567333,-2.899885088,-1.649875512,0.3210711962,3.351791974E0,0
3.487579333,-3.15309233,-1.714362114,0.2804377252,3.599954724E0,0
3.497591333,-2.669694241,-1.449254034,0.4570221761,3.071884416E0,0
3.507603333,-1.755946342,-1.055670347,0.7063103217,2.167178283E0,0
3.517615333,-0.8864682984,-0.7560286117,0.7314223588,1.375639478E0,0
3.527627333,-0.3133148646,-0.6596232283,0.3998641813,8.325625329E-1,0
3.537639333,-0.1136979389,-0.6490497082,-0.11913468,6.696161715E-1,0
3.547651333,-0.2346347308,-0.7135234469,-0.6047134879,9.642860409E-1,0
3.557662333,-0.5458750033,-0.8900450402,-0.957945832,1.416975621E0,0
3.567674333,-0.958538155,-1.103195931,-1.25343546,1.925340777E0,0
3.577686333,-1.509540582,-1.302076693,-1.493669777,2.491017038E0,0
3.587698333,-2.066342277,-1.570418283,-1.575817017,3.036310798E0,0
3.597710333,-2.537240773,-1.828641266,-1.404416123,3.428396749E0,0
3.607722333,-2.869543886,-2.063881769,-0.9907001799,3.670882307E0,0
3.617734333,-2.956113667,-2.241805524,-0.481923421,3.741196360E0,0
3.627746333,-2.842346147,-2.298789564,-0.1710620481,3.659593871E0,0
3.637758333,-2.702591845,-2.261756809,-0.211119276,3.530455763E0,0
3.647770333,-2.608557508,-2.155763746,-0.4440103671,3.413068239E0,0
3.657782333,-2.538944651,-1.982391463,-0.7214689359,3.301004890E0,0
3.667794333,-2.604913523,-1.799100548,-1.037601281,3.331509217E0,0
3.677806333,-2.675897552,-1.633702698,-1.422715861,3.442895966E0,0
3.687817333,-2.6380801,-1.437988204,-1.747824121,3.475941002E0,0
3.697829333,-2.619929758,-1.197395745,-1.803272536,3.398467352E0,0
3.707841333,-2.586643898,-0.935191977,-1.677436363,3.221661596E0,0
3.717853333,-2.367422428,-0.7370660913,-1.527593275,2.912300910E0,0
3.727865333,-1.854164947,-0.5616718411,-1.257509946,2.309704347E0,0
3.737877333,-1.226892609,-0.3619467419,-0.8149394555,1.516706047E0,0
3.747889333,-0.5581225812,-0.142044071,-0.3533655144,6.756807830E-1,0
3.757901333,0.03928919613,0.2428763813,0.05455656856,2.520099139E-1,0
3.767913333,0.5510135365,0.5764448315,0.3910733311,8.881682900E-1,0
3.777925333,1.033494197,0.7669892174,0.8359156108,1.534645765E0,0
3.787937333,1.580728678,0.9636989075,1.341307563,2.286159381E0,0
3.797949333,2.150731047,1.18514115,1.735748744,3.007162664E0,0
3.807960333,2.633053249,1.386632693,1.797523554,3.476609061E0,0
3.817972333,3.196313778,1.658230013,1.668860836,3.968783823E0,0
3.827984333,3.642583802,2.038927022,1.492640374,4.433239836E0,0
3.837996333,3.804068695,2.416239662,1.149672525,4.650903101E0,0
3.848008333,3.626245512,2.622053466,0.7321053135,4.534401734E0,0
3.858020333,2.938938641,2.638285337,0.1984501138,3.954401637E0,0
3.868032333,2.123736792,2.513367761,-0.4287489881,3.318297931E0,0
3.878044333,1.702812694,2.358919407,-0.8929838508,3.043269951E0,0
3.888056333,1.697273042,2.23176527,-1.111334671,3.016053174E0,0
3.898068333,2.009264097,2.147361297,-1.143133584,3.155163568E0,0
3.908080333,2.817506005,1.979871313,-0.9305862714,3.567102650E0,0
3.918092333,3.781652225,1.736809575,-0.4848283178,4.189565556E0,0
3.928104333,4.56110946,1.413907616,-0.03968402937,4.775398316E0,0
3.938116333,4.829408365,1.032178574,0.1460809886,4.940639374E0,0
3.948127333,4.541019596,0.5726634371,0.1232981899,4.578646616E0,0
3.958139333,3.712819387,-0.1107614672,0.02877444059,3.714582597E0,0
3.968151333,2.617578008,-0.8615264153,0.006440708041,2.755718395E0,0
3.978163333,1.436379635,-1.536861697,0.0709413439,2.104795241E0,0
3.988175333,0.4077666932,-2.110862392,0.2351294053,2.162706534E0,0
3.998187333,-0.2720943332,-2.531646157,0.3181771168,2.566028891E0,0
4.008199333,-0.6294644594,-2.768970022,0.1577923769,2.843996998E0,0
4.018211333,-0.6640548331,-2.795042172,-0.1342345297,2.875977829E0,0
4.028223333,-0.5409025311,-2.682597291,-0.4433855921,2.772272454E0,0
4.038235333,-0.3919254166,-2.490626185,-0.9207423377,2.684136878E0,0
4.048247333,-0.2755137849,-2.287443042,-1.485928355,2.741584687E0,0
4.058259333,-0.2288588512,-2.007045663,-1.856786546,2.743768384E0,0
4.068270333,-0.6358162898,-1.903517202,-2.012710592,2.842295554E0,0
4.078282333,-1.201937862,-2.025152736,-2.106911429,3.159900947E0,0
4.088294333,-1.673255019,-2.188316365,-1.963615469,3.382942001E0,0
4.098306333,-1.932559737,-2.271918685,-1.659751459,3.413381982E0,0
4.108318333,-1.956143897,-2.216542044,-1.432787252,3.285184452E0,0
4.118330333,-2.122067412,-2.046921335,-1.132324421,3.158356478E0,0
4.128342333,-2.326999456,-2.010193219,-0.9514922601,3.218872593E0,0
4.138354333,-2.567767916,-1.966461893,-0.9033275753,3.358035908E0,0
4.148366208,-2.812318355,-1.871901307,-0.9308498347,3.504230365E0,0
4.158378208,-2.913147157,-1.716388174,-0.966806995,3.516693119E0,0
4.168390208,-2.804270248,-1.455616974,-0.9322806484,3.294222155E0,0
4.178402208,-2.587146174,-1.107530472,-0.8659615284,2.944458938E0,0
4.188414208,-2.24544717,-0.7323035342,-0.9757016332,2.555444215E0,0
4.198425208,-1.992186134,-0.4461688668,-1.101942288,2.319945917E0,0
4.208437208,-1.862179141,-0.1706276,-1.081018173,2.159959542E0,0
4.218449208,-1.671435365,0.1170828921,-0.9779207978,1.940034451E0,0
4.228461208,-1.316117027,0.4555840534,-0.8388710859,1.625861481E0,0
4.238473208,-0.8618269622,0.7917445743,-0.6628315955,1.344972456E0,0
4.248485208,-0.5347290409,1.076072452,-0.4070568413,1.268685281E0,0
4.258497208,-0.2535674304,1.294894558,0.1283534002,1.325716015E0,0
4.268509208,0.04406520188,1.40656936,0.8889445943,1.664512420E0,0
4.278521208,0.04709289014,1.478867843,1.630706292,2.201924351E0,0
4.288533208,-0.1845854884,1.473694811,2.329985922,2.763092940E0,0
4.298545208,-0.342764951,1.515524037,2.885402412,3.277170730E0,0
4.308557208,-0.4165649986,1.684253047,3.338122206,3.762086467E0,0
4.318569208,-0.2658424902,2.032262365,3.362005743,3.937492244E0,0
4.328580208,0.1918085539,2.534531758,3.043634791,3.965394620E0,0
4.338592208,0.9289828187,3.193587806,2.731255774,4.303692630E0,0
4.348604208,1.404204746,3.875161482,2.41083011,4.775015110E0,0
4.358616208,1.322740753,4.188052424,2.068716831,4.854793047E0,0
4.368628208,0.9455169904,4.193313164,1.660686429,4.608227108E0,0
4.378640208,0.8758772367,4.204588934,1.458956611,4.535888384E0,0
4.388652208,1.957348423,4.344396445,1.938720363,5.144281288E0,0
4.398664208,3.90000981,4.456567091,2.669734294,6.496040945E0,0
4.408676208,5.857253568,4.475071775,3.162811571,8.021038822E0,0
4.418688208,6.862453088,4.314383272,3.196376928,8.713437374E0,0
4.428700208,6.00956301,3.591652799,2.618469123,7.474703871E0,0
4.438712208,3.706728342,2.228740506,1.767575285,4.672412828E0,0
4.448724208,1.236356912,0.8062117553,0.893046416,1.725134114E0,0
4.458736208,-0.7906862283,-0.2535715234,0.418049022,9.296495113E-1,0
4.468747208,-2.005911303,-0.9644777566,0.3207272337,2.248724851E0,0
4.478759208,-2.394040123,-1.31434532,0.5125439738,2.778782657E0,0
4.488771208,-2.006826392,-1.369619635,0.9049978325,2.592726594E0,0
4.498783208,-1.165364113,-1.249207338,1.236475318,2.108901065E0,0
4.508795208,-0.5308301175,-1.162680241,1.184631273,1.742686779E0,0
4.518807208,-0.1767782861,-1.23797893,0.8550664115,1.514919457E0,0
4.528819208,-0.156632874,-1.445910596,0.3797227161,1.503123631E0,0
4.538831208,-0.4875455189,-1.71630222,-0.06129168391,1.785259257E0,0
4.548843208,-0.9997475767,-2.006518829,-0.4129369475,2.279502128E0,0
4.558855208,-1.490456439,-2.242772069,-0.631801153,2.765982583E0,0
4.568867208,-1.926212,-2.477309736,-0.7267194432,3.221098779E0,0
4.578879208,-2.28804589,-2.721557874,-0.7176679534,3.627268745E0,0
4.588890208,-2.422717792,-2.879316922,-0.6477782312,3.818330011E0,0
4.598902208,-2.315762277,-2.904953454,-0.5429994889,3.754511678E0,0
4.608914208,-2.144039494,-2.789344645,-0.4012600578,3.540954467E0,0
4.618926208,-2.166049583,-2.727119161,-0.5075906512,3.519459899E0,0
4.628938208,-2.326207743,-2.824673522,-0.7652104944,3.738391375E0,0
4.638950208,-2.451663263,-2.913140725,-0.9759359604,3.930584262E0,0
4.648962208,-2.456008914,-2.84192924,-1.190909429,3.940406941E0,0
4.658974208,-2.428027064,-2.614890043,-1.388300612,3.828882859E0,0
4.668986208,-2.376594955,-2.418007275,-1.513399744,3.712861638E0,0
4.678998208,-2.430928452,-2.297544692,-1.56982479,3.694925523E0,0
4.689010208,-2.560419136,-2.190683318,-1.600712707,3.730565737E0,0
4.699022208,-2.771871995,-2.049059077,-1.701233653,3.843971046E0,0
4.709034208,-2.872596717,-1.812666088,-1.868514599,3.876714724E0,0
4.719046208,-2.459395621,-1.431411256,-1.883374421,3.412427906E0,0
4.729057208,-1.696763164,-0.81680691,-1.647851205,2.502317398E0,0
4.739069208,-0.8415763003,-0.1197153085,-0.9872810206,1.302807061E0,0
4.749081208,-0.05226416767,0.3830972904,-0.1837519678,4.280886156E-1,0
4.759093208,0.6572141755,0.6773876542,0.4502133858,1.045694314E0,0
4.769105208,1.279741498,1.062832602,0.9837481329,1.932643741E0,0
4.779117208,1.796530697,1.547962636,1.47746568,2.794032158E0,0
4.789129208,2.194858814,1.82593459,1.932991554,3.447883219E0,0
4.799141208,2.429970678,1.871984337,2.089970144,3.711745958E0,0
4.809153208,2.521922822,1.950037065,1.888975907,3.705532249E0,0
4.819165208,2.586417611,2.226496929,1.557378992,3.751302968E0,0
4.829177208,2.430169483,2.655613561,1.102463275,3.764761928E0,0
4.839189208,1.83793717,2.914152879,0.6103741774,3.498979376E0,0
4.849201208,1.199532318,3.004202923,0.09861796975,3.236331023E0,0
4.859212208,0.829633947,3.025172208,-0.3850262868,3.160412096E0,0
4.869224208,0.8809245533,2.874832107,-0.6842742124,3.083653501E0,0
4.879236208,1.376143958,2.722362451,-0.682953034,3.125932558E0,0
4.889248208,2.703216913,2.644600915,-0.1302369346,3.783947322E0,0
4.899260208,4.543471334,2.649668112,0.6868923032,5.304308994E0,0
4.909272208,6.107897975,2.683477882,1.415927829,6.819994342E0,0
4.919284208,6.885810961,2.51718073,1.727202015,7.532185487E0,0
4.929296208,6.31063556,1.850549614,1.500543179,6.745389898E0,0
4.939308208,4.42112127,0.7185830426,1.089015556,4.609623602E0,0
4.949320208,2.447063844,-0.4372027463,0.728638207,2.590401771E0,0
4.959332208,1.010894709,-1.33891649,0.624631151,1.790187017E0,0
4.969344208,0.1559048957,-1.989309304,0.6748876771,2.106449909E0,0
4.979356208,-0.2725153327,-2.358196106,0.652388176,2.461902478E0,0
4.989367208,-0.2216024566,-2.514308578,0.5739550871,2.588489852E0,0
4.999379208,0.1797293758,-2.481810338,0.2635129595,2.502223867E0,0
5.009391208,0.713815223,-2.219086168,-0.3986350965,2.364907088E0,0
5.019403208,1.03155643,-1.957760067,-1.231676801,2.532579888E0,0
5.029415208,1.049690984,-1.857689064,-1.921970429,2.871729471E0,0
5.039427208,0.7354814959,-1.917537655,-2.31962027,3.098148138E0,0
5.049439208,0.1627630949,-2.124016289,-2.497202548,3.282370727E0,0
5.059451208,-0.4412741625,-2.359161481,-2.595574935,3.535162659E0,0
5.069463208,-1.074405411,-2.579023806,-2.618352179,3.829031067E0,0
5.079475208,-1.694390364,-2.798178619,-2.558149247,4.152696697E0,0
5.089487208,-2.072639143,-2.970812398,-2.512847651,4.408623667E0,0
5.099499208,-2.171922526,-3.001265282,-2.473433032,4.454515879E0,0
5.109511208,-2.211416375,-2.90315602,-2.328900386,4.329255625E0,0
5.119522208,-2.423528216,-2.781342731,-2.117936354,4.253823080E0,0
5.129534208,-2.643790491,-2.747427126,-2.08342024,4.344953839E0,0
5.139546208,-2.696899581,-2.592418608,-2.100854006,4.290394987E0,0
5.149558458,-2.688299496,-2.32307539,-1.939247782,4.047754366E0,0
5.159570458,-2.571595504,-2.006574962,-1.737230282,3.695594075E0,0
5.169582458,-2.408687398,-1.716260705,-1.543559098,3.336150548E0,0
5.179594458,-2.176625442,-1.436395422,-1.410388761,2.964814763E0,0
5.189606458,-1.921009147,-1.084302993,-1.442822097,2.635853700E0,0
5.199618458,-1.828375803,-0.7464923877,-1.500193223,2.480078359E0,0
5.209630458,-1.683712179,-0.4647846472,-1.488266072,2.294743422E0,0
5.219642458,-1.516459592,-0.1711275369,-1.404196852,2.073813668E0,0
5.229654458,-1.320483143,0.1859461355,-1.240820969,1.821507171E0,0
5.239666458,-1.110398532,0.5790719855,-0.9175845489,1.552504643E0,0
5.249677458,-0.7847062808,1.045157638,-0.3769039196,1.360211381E0,0
5.259689458,-0.2385909569,1.52594553,0.439621447,1.605833871E0,0
5.269701458,0.4793097156,2.127160921,1.134786683,2.458107444E0,0
5.279713458,1.022020206,2.723712573,1.60360357,3.321848867E0,0
5.289725458,1.395284234,3.204039119,2.052758026,4.052961915E0,0
5.299737458,1.675494502,3.629280801,2.455218371,4.691168107E0,0
5.309749458,1.791738319,3.91509855,2.717798699,5.091635555E0,0
5.319761458,1.603221163,4.141333755,2.775372139,5.236759864E0,0
5.329773458,1.034795203,4.293783531,2.696715978,5.174906298E0,0
5.339785458,0.3467083132,4.283595343,2.415610209,4.929966369E0,0
5.349797458,-0.2138736069,4.247132106,1.89844825,4.657035409E0,0
5.359809458,-0.009833847284,4.347529383,1.609890204,4.636038709E0,0
5.369821458,1.326021041,4.563990383,2.00054619,5.156600147E0,0
5.379832458,3.525655276,4.846471125,2.6925972,6.570282123E0,0
5.389844458,5.855183069,4.982614186,3.517330595,8.454657143E0,0
5.399856458,7.254783717,4.763812546,4.305447557,9.688275152E0,0
5.409868458,6.790803062,3.863264737,4.385424603,8.959451412E0,0
5.419880458,4.568829539,2.262191257,3.798852979,6.357908193E0,0
5.429892458,1.85580743,0.5129212654,2.723221407,3.335122827E0,0
5.439904458,-0.700181855,-0.837025997,1.660346121,1.986860939E0,0
5.449916458,-2.585132977,-1.822599338,0.8226374611,3.268258443E0,0
5.459928458,-3.570293505,-2.381732903,0.2460370937,4.298858172E0,0
5.469940458,-3.641102117,-2.49871113,0.05076523393,4.416306041E0,0
5.479952458,-2.887042848,-2.277403373,0.1077869886,3.678749864E0,0
5.489964458,-1.754634227,-1.927827001,0.2659746373,2.620305464E0,0
5.499976458,-0.8997484946,-1.729694098,0.222793242,1.962403082E0,0
5.509987458,-0.2983582717,-1.725233842,0.02081170231,1.750966189E0,0
5.519999458,-0.001623187065,-1.765204239,-0.1345441398,1.770325045E0,0
5.530011458,-0.1712667006,-1.900618152,-0.3187229544,1.934752171E0,0
5.540023458,-0.7646058923,-2.129691011,-0.6681642562,2.359374800E0,0
5.550035458,-1.336192857,-2.416888118,-0.923064267,2.911839138E0,0
5.560047458,-1.796240675,-2.621926582,-1.073615452,3.354643007E0,0
5.570059458,-2.181820693,-2.754318069,-1.14645451,3.696074608E0,0
5.580071458,-2.459978004,-2.837998157,-1.205342111,3.944435945E0,0
5.590083458,-2.617106137,-2.898985201,-1.250907416,4.100991233E0,0
5.600095458,-2.696927648,-2.888848468,-1.25007945,4.145064878E0,0
5.610107458,-2.770460477,-2.886372172,-1.269889525,4.197524863E0,0
5.620119458,-2.696550502,-2.810002273,-1.287455437,4.101833601E0,0
5.630131458,-2.505007412,-2.561107938,-1.318741988,3.817514431E0,0
5.640142458,-2.425328574,-2.293347561,-1.38675797,3.614520631E0,0
5.650154458,-2.399009086,-2.090925726,-1.425544159,3.487031852E0,0
5.660166458,-2.399617197,-1.904911762,-1.434723703,3.383087882E0,0
5.670178458,-2.38895363,-1.71389726,-1.488031599,3.295266500E0,0
5.680190458,-2.33718823,-1.505876716,-1.48817544,3.153534469E0,0
5.690202458,-2.175811509,-1.250121258,-1.383995307,2.865728859E0,0
5.700214458,-1.829366321,-0.9060167098,-1.302992367,2.421825040E0,0
5.710226458,-1.266251387,-0.5222569299,-1.144379772,1.784866924E0,0
5.720238458,-0.5401254362,-0.1529959059,-0.847591331,1.016638726E0,0
5.730250458,0.3270219076,0.2718013877,-0.5657549518,7.077414697E-1,0
5.740262458,1.2018063,0.7813324374,-0.1495255834,1.441241361E0,0
5.750274458,1.608819287,1.163449734,0.2688011813,2.003539083E0,0
5.760286458,1.573892114,1.297929847,0.5686807524,2.117818706E0,0
5.770297458,1.579613029,1.296691407,0.9448150322,2.251502026E0,0
5.780309458,1.799250237,1.334367941,1.366522657,2.623970920E0,0
5.790321458,2.14214675,1.430718945,1.747588186,3.112846586E0,0
5.800333458,2.452644426,1.545437808,1.969811763,3.504853932E0,0
5.810345458,2.679776595,1.64076555,1.744539448,3.593985541E0,0
5.820357458,2.509232025,1.842330183,1.235166273,3.349038904E0,0
5.830369458,1.928822781,1.998677128,0.5214991307,2.826133211E0,0
5.840381458,1.107524625,2.062871954,-0.1878631452,2.348902735E0,0
5.850393458,0.5435443032,1.984622176,-0.7265231229,2.182201054E0,0
5.860405458,0.4618288797,1.936635246,-1.047278277,2.249585246E0,0
5.870417458,0.7575728613,1.987045847,-1.163777909,2.424179626E0,0
5.880429458,1.928214671,2.107124852,-0.7643269801,2.956718230E0,0
5.890441458,3.791524664,2.337516258,0.1043213439,4.455392741E0,0
5.900452458,5.588383974,2.488614743,0.8265302449,6.173037423E0,0
5.910464458,6.747748259,2.459718388,1.113146431,7.267834346E0,0
5.920476458,6.985327063,2.164024107,1.126719865,7.399141313E0,0
5.930488458,5.830380934,1.357880765,0.9751629585,6.065321492E0,0
5.940500458,3.938891455,0.2628645033,0.7524276039,4.018720062E0,0
5.950512458,2.261877261,-0.7274941993,0.5274896032,2.433840964E0,0
5.960524458,0.9024130708,-1.50192166,0.4107774246,1.799682226E0,0
5.970536458,0.07009700596,-1.973424758,0.4095404461,2.016690914E0,0
5.980548458,-0.2333828419,-2.230364862,0.1918120623,2.250730290E0,0
5.990560458,-0.2242658633,-2.282679901,-0.274187344,2.310000304E0,0
6.000572458,-0.1219518685,-2.169642112,-0.8783225423,2.343857854E0,0
6.010584458,0.1160438418,-2.013302184,-1.556710363,2.547586899E0,0
6.020595458,0.3153181207,-1.825529963,-2.159367677,2.845145678E0,0
6.030607458,0.2243471396,-1.692328051,-2.53992406,3.060313726E0,0
6.040619458,-0.09396943331,-1.69374834,-2.785845964,3.261679234E0,0
6.050631458,-0.4616639882,-1.777525492,-2.856859813,3.396230043E0,0
6.060643458,-0.9465016615,-1.890354534,-2.755389279,3.472963539E0,0
6.070655458,-1.320327607,-1.998221045,-2.532450734,3.485607415E0,0
6.080667458,-1.635940427,-2.128922102,-2.361052617,3.575357305E0,0
6.090679458,-1.942173729,-2.248081926,-2.196189641,3.694476969E0,0
6.100691458,-2.166842465,-2.306483915,-1.972171699,3.728878589E0,0
6.110703458,-2.330585554,-2.268271776,-1.78924799,3.711885537E0,0
6.120715458,-2.234602924,-2.130927697,-1.538248364,3.449711743E0,0
6.130727458,-2.115788671,-1.905055604,-1.223498885,3.098830114E0,0
6.140739458,-2.143077627,-1.701484791,-1.100502119,2.949396061E0,0
6.150750708,-2.179168981,-1.493768887,-1.070853227,2.850762980E0,0
6.160762708,-2.209322487,-1.270390046,-1.170671046,2.804544066E0,0
6.170774708,-2.152734888,-1.070863752,-1.246556357,2.708305637E0,0
6.180786708,-1.963340065,-0.8256455612,-1.158659403,2.424641502E0,0
6.190798708,-1.578828333,-0.4223268449,-0.9552947044,1.893052255E0,0
6.200810708,-1.054868109,-0.02474717081,-0.7934826592,1.320217361E0,0
6.210822708,-0.6810889417,0.3862822688,-0.7127272023,1.058808860E0,0
6.220834708,-0.3629343367,0.761851269,-0.56942598,1.018029781E0,0
6.230846708,-0.07668506384,1.105421382,-0.2284023298,1.131372907E0,0
6.240858708,0.1065274984,1.473694811,0.1754500911,1.487920441E0,0
6.250870708,0.3146796048,1.820250512,0.5944054314,1.940529051E0,0
6.260882708,0.5054239655,2.09172621,1.06882746,2.402740947E0,0
6.270893708,0.6344275761,2.325685587,1.700188756,2.949907389E0,0
6.280905708,0.8275172549,2.555284111,2.320072845,3.549225225E0,0
6.290917708,1.204486663,2.800605798,2.882573236,4.195641717E0,0
6.300929708,1.708697332,3.074165443,3.155623297,4.725261700E0,0
6.310941708,2.017299925,3.315940209,2.976404675,4.891210816E0,0
6.320953708,2.011791263,3.51148221,2.557903371,4.787554810E0,0
6.330965708,1.642471767,3.558909561,1.883919966,4.348874016E0,0
6.340977708,1.100003352,3.374379036,1.293438309,3.777489102E0,0
6.350989708,0.7355265194,3.219634228,0.9240249646,3.429411897E0,0
6.361001708,0.7097186637,3.14067986,0.7182582298,3.299009768E0,0
6.371013708,1.199655694,3.154500924,0.9270725334,3.499930477E0,0
6.381025708,2.155103595,3.02726785,1.531706499,4.019321702E0,0
6.391037708,2.892867844,2.718619063,2.084829419,4.483981231E0,0
6.401048708,3.173010285,2.388488191,2.541487606,4.715085297E0,0
6.411060708,2.413635312,1.743975922,2.636180924,3.977001044E0,0
6.421072708,0.9101501065,0.7739152443,2.352791525,2.638739468E0,0
6.431084708,-0.3318528771,-0.05708402753,2.021655516,2.049506268E0,0
6.441096708,-1.134746922,-0.5191584903,1.830868763,2.215684216E0,0
6.451108708,-1.472719495,-0.7683662367,1.776371836,2.432033364E0,0
6.461120708,-1.24372265,-0.8768583995,1.867570274,2.409054879E0,0
6.471132708,-0.5413428265,-0.8494291109,1.876077388,2.129377429E0,0
6.481144708,0.1792826486,-0.7559631228,1.710691232,1.878852576E0,0
6.491156708,0.744614262,-0.6894872975,1.416505533,1.742507119E0,0
6.501168708,1.134345803,-0.7102759033,1.125959142,1.749004359E0,0
6.511180708,1.141102846,-0.8579333013,0.7582020217,1.616488651E0,0
6.521191708,0.6564388347,-1.16868884,0.3355945104,1.381799270E0,0
6.531203708,-0.07296623468,-1.616637599,-0.1034566869,1.621587026E0,0
6.541215708,-0.7924152499,-2.091691711,-0.5233676085,2.297174307E0,0
6.551227708,-1.495987905,-2.495957676,-0.9341207671,3.056201260E0,0
6.561239708,-2.041396886,-2.774428983,-1.244019396,3.662286401E0,0
6.571251708,-2.418079196,-2.984389048,-1.383966948,4.082774730E0,0
6.581263708,-2.658113245,-3.080779229,-1.462751893,4.323934526E0,0
6.591275708,-2.767460856,-3.110891805,-1.546587663,4.441668696E0,0
6.601287708,-2.745493451,-3.070075901,-1.606413742,4.420821806E0,0
6.611299708,-2.640223104,-2.957856722,-1.61227236,4.280083713E0,0
6.621311708,-2.447636871,-2.791522148,-1.701616938,4.083995881E0,0
6.631323708,-2.360763618,-2.590394302,-1.758360658,3.921119700E0,0
6.641335708,-2.36259789,-2.452894102,-1.796799815,3.850590583E0,0
6.651346708,-2.363043448,-2.367926458,-1.835165589,3.815610408E0,0
6.661358708,-2.297309634,-2.224895961,-1.761711697,3.651221946E0,0
6.671370708,-2.222468197,-2.00994939,-1.664855639,3.427973999E0,0
6.681382708,-2.266543339,-1.861568692,-1.584559774,3.333689605E0,0
6.691394708,-2.170353134,-1.697700473,-1.419223319,3.099486159E0,0
6.701406708,-1.685569839,-1.368791669,-1.165699743,2.464465907E0,0
6.711418708,-0.998667596,-0.9173129457,-0.852877214,1.601936188E0,0
6.721430708,-0.4291821206,-0.501243791,-0.6010551775,8.925861062E-1,0
6.731442708,0.2800465465,-0.0337571454,-0.2718961126,3.917819662E-1,0
6.741454708,0.961631332,0.4796523625,0.2830271646,1.111263058E0,0
6.751466708,1.247845522,0.9125404483,0.7756511365,1.729590472E0,0
6.761478708,1.282093833,1.185501339,1.065868184,2.045789091E0,0
6.771489708,1.4584289,1.398172174,1.290553877,2.397379735E0,0
6.781501708,1.713194425,1.498811526,1.598233195,2.781334297E0,0
6.791513708,1.872309442,1.515169696,1.676362521,2.934531165E0,0
6.801525708,1.987969707,1.586608053,1.443762914,2.924688021E0,0
6.811537708,2.015748659,1.836313398,0.9721498883,2.894886000E0,0
6.821549708,2.040101727,2.195545278,0.5409966713,3.045506776E0,0
6.831561708,1.934644854,2.44217908,0.3386566973,3.133971558E0,0
6.841573708,1.347775022,2.495712678,-0.05922293901,2.837003108E0,0
6.851585708,0.7810757446,2.389945902,-0.4671524772,2.557372122E0,0
6.861597708,0.5679429799,2.235961232,-0.5907740182,2.381406265E0,0
6.871609708,0.8100522065,2.127841537,-0.4789350553,2.326644144E0,0
6.881621708,1.916179347,2.144597318,-0.0005262494087,2.875941798E0,0
6.891632708,3.597473702,2.253872423,0.4613359594,4.270197748E0,0
6.901644708,5.097337727,2.307132956,0.8376604199,5.657507345E0,0
6.911656708,5.963792176,2.210728742,1.08291194,6.451886310E0,0
6.921668708,5.867798436,1.826379563,1.147694997,6.251713733E0,0
6.931680708,4.650863051,1.014705339,0.9533433424,4.854793257E0,0
6.941692708,2.909580356,0.007888478637,0.7049794954,2.993779578E0,0
6.951704708,1.52796048,-0.8269722944,0.5528266118,1.823228913E0,0
6.961716708,0.6202907628,-1.342203795,0.5325326805,1.571579687E0,0
6.971728708,0.4382727867,-1.601614932,0.6409213476,1.779897076E0,0
6.981740708,0.549578045,-1.659380745,0.6210713661,1.855076852E0,0
6.991752708,0.5627559149,-1.678788239,0.1402903448,1.776149079E0,0
7.001764708,0.564836939,-1.625637633,-0.6089332773,1.825524094E0,0
7.011775708,0.5654058731,-1.548298851,-1.330623969,2.118365709E0,0
7.021787708,0.45142259,-1.494315602,-1.92139521,2.475584986E0,0
7.031799708,-0.005891654491,-1.537528279,-2.289467348,2.757841305E0,0
7.041811708,-0.5868148685,-1.697227433,-2.42173429,3.014917847E0,0
7.051823708,-1.139083802,-1.828132558,-2.410139846,3.232391473E0,0
7.061835708,-1.548567823,-1.957035597,-2.375981289,3.445770990E0,0
7.071847708,-1.838476283,-2.062198355,-2.342791178,3.622337312E0,0
7.081859708,-2.019382119,-2.120381659,-2.332305951,3.743470792E0,0
7.091871708,-2.121501986,-2.11412163,-2.274591593,3.760857330E0,0
7.101883708,-2.088163501,-2.064523793,-2.110445047,3.616166976E0,0
7.111895708,-1.95524518,-1.932320586,-1.827390108,3.300939437E0,0
7.121907708,-1.979259109,-1.822722715,-1.602153022,3.131561755E0,0
7.131919708,-2.194900914,-1.749660586,-1.59277862,3.227358970E0,0
7.141930708,-2.398533123,-1.656830775,-1.618909388,3.334504006E0,0
7.151942125,-2.472040225,-1.495034224,-1.572458084,3.289184494E0,0
7.161954125,-2.380890904,-1.260720506,-1.447417424,3.058279727E0,0
7.171966125,-2.248194777,-1.012938311,-1.351496775,2.811933020E0,0
7.181978125,-2.193863618,-0.7844911033,-1.262674645,2.650058703E0,0
7.191990125,-1.989673001,-0.5668559825,-1.149338064,2.366664814E0,0
7.202002125,-1.514287351,-0.2197980058,-0.9493102254,1.800712984E0,0
7.212014125,-0.9674329394,0.21536874,-0.6776098484,1.200610384E0,0
7.222026125,-0.3742639017,0.6054458517,-0.415117228,8.239905706E-1,0
7.232038125,0.1376808786,0.9985091364,-0.07084018707,1.010442899E0,0
7.242050125,0.5548767918,1.445239921,0.2984009564,1.576594372E0,0
7.252062125,0.8100118607,1.78078473,0.7049466048,2.079486279E0,0
7.262073125,0.9774123824,1.971305142,1.101937318,2.460821973E0,0
7.272085125,1.001973612,2.137369575,1.441941506,2.766133606E0,0
7.282097125,0.8502102989,2.269192128,1.619110679,2.914379841E0,0
7.292109125,0.7498410881,2.469261044,1.745418431,3.115444953E0,0
7.302121125,0.8894024312,2.790581916,1.921505283,3.502936863E0,0
7.312133125,1.060981958,3.169448746,1.960501826,3.874874898E0,0
7.322145125,0.8525708199,3.446999701,1.678153085,3.927452319E0,0
7.332157125,0.5225358421,3.563231238,1.258565076,3.814924195E0,0
7.342169125,0.2665897644,3.65770704,0.8928914648,3.774539186E0,0
7.352181125,0.0448873204,3.665977927,0.6213385838,3.718530714E0,0
7.362193125,0.535518415,3.717787766,0.735710122,3.827531218E0,0
7.372205125,2.106600357,3.851640472,1.387557577,4.604151976E0,0
7.382216125,4.042711108,3.898975437,2.123625987,6.004607389E0,0
7.392228125,5.596580601,3.74329449,2.86369667,7.316742901E0,0
7.402240125,5.709588568,3.174151661,3.249928068,7.296346540E0,0
7.412252125,4.048193457,1.889554051,2.876964002,5.313681083E0,0
7.422264125,1.610321437,0.3036424005,2.18867743,2.734162163E0,0
7.432276125,-0.7857330519,-1.00047497,1.496232757,1.963934586E0,0
7.442288125,-2.66241855,-1.983655046,0.9530672076,3.454228855E0,0
7.452300125,-3.590878043,-2.506497282,0.7445347399,4.441988938E0,0
7.462312125,-3.596217721,-2.576225329,0.8484970647,4.504405189E0,0
7.472324125,-2.866923748,-2.220958446,1.055077293,3.776916241E0,0
7.482336125,-1.79445435,-1.786054825,1.161715158,2.785613104E0,0
7.492347125,-0.9812002087,-1.506625745,0.9729964189,2.044357360E0,0
7.502359125,-0.3779762989,-1.35557053,0.5570035703,1.513502732E0,0
7.512371125,-0.01305624783,-1.227311854,0.1075968079,1.232088441E0,0
7.522383125,-0.02658495069,-1.187886418,-0.2525429982,1.214725841E0,0
7.532395125,-0.2728123713,-1.305897263,-0.4886121972,1.420751960E0,0
7.542407125,-0.7145326763,-1.476658764,-0.6062223619,1.748880672E0,0
7.552419125,-1.289709247,-1.746144655,-0.6544776785,2.267313857E0,0
7.562431125,-1.762786415,-2.046825441,-0.6281769025,2.773358352E0,0
7.572443125,-2.05403915,-2.195000317,-0.538284148,3.053989693E0,0
7.582455125,-2.210773766,-2.198693419,-0.4139951473,3.145340264E0,0
7.592467125,-2.266370262,-2.200576222,-0.3012608296,3.173283467E0,0
7.602479125,-2.326830472,-2.219083829,-0.2978945875,3.229119736E0,0
7.612490125,-2.420439717,-2.217805628,-0.304748109,3.296977651E0,0
7.622502125,-2.528648874,-2.182998322,-0.3561949821,3.359527001E0,0
7.632514125,-2.686123163,-2.128792879,-0.4263853973,3.453812571E0,0
7.642526125,-2.794336413,-2.028958688,-0.5431778289,3.495716165E0,0
7.652538125,-2.919658032,-1.898890885,-0.6964516237,3.551793136E0,0
7.662550125,-2.986321553,-1.715205283,-0.765518935,3.527898074E0,0
7.672562125,-2.848002743,-1.438955333,-0.6504986483,3.256510489E0,0
7.682574125,-2.690323802,-1.137048386,-0.5330535212,2.968984212E0,0
7.692586125,-2.428494841,-0.7916200286,-0.444854705,2.592710005E0,0
7.702598125,-1.893697972,-0.4315075582,-0.3331354639,1.970601436E0,0
7.712610125,-1.083181497,0.04070597649,-0.08909899503,1.087601840E0,0
7.722622125,-0.3077103084,0.5692749757,0.1892650151,6.742261325E-1,0
7.732633125,0.4767346019,1.050749915,0.4618877904,1.242856225E0,0
7.742645125,1.261689974,1.456495226,0.8948431192,2.124613881E0,0
7.752657125,1.87089617,1.780860744,1.384969161,2.930845790E0,0
7.762669125,2.381019543,1.895695381,1.791401812,3.531576913E0,0
7.772681125,2.669632845,1.888003369,1.958967517,3.811699094E0,0
7.782693125,2.880094017,2.079840574,1.852227619,4.006423032E0,0
7.792705125,3.018067841,2.270430568,1.497051368,4.062603999E0,0
7.802717125,2.784594952,2.32404018,0.8288328785,3.720496707E0,0
7.812729125,2.511114244,2.396025837,0.1092850453,3.472546296E0,0
7.822741125,2.112512476,2.449583994,-0.5820435405,3.286631313E0,0
7.832753125,1.45085968,2.447310596,-1.309315546,3.131873267E0,0
7.842764125,0.9236928427,2.405456226,-1.941052379,3.226005652E0,0
7.852776125,0.6178939891,2.298886628,-2.383233445,3.368452814E0,0
7.862788125,0.6882792628,2.087686953,-2.49003854,3.321514276E0,0
7.872800125,1.683662478,2.045364221,-2.163259292,3.420222931E0,0
7.882812125,3.569919868,2.279401367,-1.528939743,4.503071751E0,0
7.892824125,5.454721887,2.425168945,-0.9104857367,6.038577609E0,0
7.902836125,6.576051788,2.286779383,-0.56050883,6.984839813E0,0
7.912848125,6.475793089,1.701800541,-0.3259128369,6.703599063E0,0
7.922860125,5.281786391,0.7389208281,-0.07019699335,5.333685319E0,0
7.932872125,3.506560609,-0.3159548825,0.1890134387,3.525836195E0,0
7.942884125,2.099919913,-1.137562941,0.5723212288,2.455863326E0,0
7.952895125,1.206517986,-1.703741816,0.8786061323,2.265032133E0,0
7.962907125,0.8137236732,-2.076229919,1.101108475,2.487029707E0,0
7.972919125,0.7975093442,-2.277445473,1.271425588,2.727508398E0,0
7.982931125,0.868001622,-2.333033783,1.126982989,2.732501437E0,0
7.992943125,0.9875953084,-2.353519503,0.6629193038,2.637017358E0,0
8.002955125,1.061324605,-2.272796937,0.1260349792,2.511553433E0,0
8.012967125,0.8366114295,-2.191733478,-0.4563380519,2.389949526E0,0
8.022979125,0.4023878396,-2.310013295,-1.078093835,2.580768047E0,0
8.032991125,-0.2549117053,-2.53050595,-1.576386828,2.992229231E0,0
8.043003125,-1.000466784,-2.697121775,-1.878215715,3.435563116E0,0
8.053015125,-1.684661767,-2.905282652,-2.032800894,3.925688734E0,0
8.063027125,-2.207075987,-3.095632911,-2.127484272,4.356640547E0,0
8.073038125,-2.500386942,-3.196000367,-2.039936397,4.541772090E0,0
8.083050125,-2.663189213,-3.193228787,-1.863664334,4.556592106E0,0
8.093062125,-2.649575141,-3.04889904,-1.618090047,4.351350271E0,0
8.103074125,-2.616003937,-2.862168792,-1.427229619,4.131884701E0,0
8.113086125,-2.725356225,-2.711259758,-1.383161494,4.085539346E0,0
8.123098125,-2.783167062,-2.555363633,-1.302191006,3.996448874E0,0
8.133110125,-2.728799651,-2.285047438,-1.077882458,3.718819695E0,0
8.143122125,-2.713280556,-1.965195971,-0.8374522591,3.453290151E0,0
8.153134458,-2.703609261,-1.701701723,-0.7637334877,3.284597484E0,0
8.163146458,-2.68981334,-1.456736131,-0.7160845274,3.141648136E0,0
8.173158458,-2.576404839,-1.140897024,-0.6039296687,2.881707646E0,0
8.183169458,-2.458046669,-0.8385252231,-0.6595472145,2.679574687E0,0
8.193181458,-2.277818525,-0.4860047776,-0.7700726004,2.453093901E0,0
8.203193458,-1.939391039,-0.09893839717,-0.8169872966,2.106773517E0,0
8.213205458,-1.55296142,0.3242164135,-0.7760272586,1.766075809E0,0
8.223217458,-1.214498851,0.6961648178,-0.5901366717,1.519182084E0,0
8.233229458,-0.9403486365,1.010749113,-0.3428801411,1.422475349E0,0
8.243241458,-0.6196048844,1.324444631,-0.04798575997,1.462999121E0,0
8.253253458,-0.2622517151,1.674965329,0.2801406866,1.718360736E0,0
8.263265458,0.08040272355,1.987855686,0.563488571,2.067741327E0,0
8.273277458,0.2769469374,2.237254052,0.8763339043,2.418670380E0,0
8.283289458,0.2523535484,2.378754916,0.9259867054,2.565074783E0,0
8.293300458,0.2596485347,2.527590528,0.6535649282,2.623600266E0,0
8.303312458,0.4660166556,2.821135957,0.5381180871,2.909561940E0,0
8.313324458,0.7147279733,3.293329026,0.4766036242,3.403528047E0,0
8.323336458,0.8556447011,3.728440223,0.4892564142,3.856522552E0,0
8.333348458,0.9942892009,3.992646078,0.5212301588,4.147470867E0,0
8.343360458,1.315960321,4.268679096,0.6885564208,4.519677282E0,0
8.353372458,2.126368039,4.571014059,1.059723199,5.151565181E0,0
8.363384458,3.314671948,4.784250904,1.56515038,6.027089061E0,0
8.373396458,4.535534323,4.860945323,1.921841206,6.920501041E0,0
8.383408458,5.541841307,4.648578544,2.25809996,7.577618556E0,0
8.393420458,5.701201322,4.064518883,2.533055336,7.445829679E0,0
8.403431458,4.45572977,3.045179626,2.442804586,5.924013925E0,0
8.413443458,2.425938438,1.726590981,2.143644514,3.668992440E0,0
8.423455458,0.552436164,0.5356552398,1.782530562,1.941527094E0,0
8.433467458,-0.8769490314,-0.3934573871,1.502909254,1.783979974E0,0
8.443479458,-1.622315245,-0.9078802174,1.441734515,2.352605291E0,0
8.453491458,-1.563903315,-1.159764819,1.632015191,2.540535691E0,0
8.463503458,-0.744440015,-1.105430737,2.003671089,2.406421801E0,0
8.473515458,0.3455143118,-0.8902432609,2.220774551,2.417385532E0,0
8.483527458,1.147490344,-0.7361094868,2.154991621,2.550015716E0,0
8.493539458,1.327002788,-0.8731401551,1.732051111,2.350172585E0,0
8.503551458,0.7877181816,-1.246404183,1.045318875,1.807405564E0,0
8.513563458,-0.03472018182,-1.684413845,0.42760308,1.738188680E0,0
8.523574458,-0.7811926889,-2.134805571,-0.08774945766,2.274941056E0,0
8.533586458,-1.432648526,-2.534141164,-0.5673567966,2.965846755E0,0
8.543598458,-1.798218788,-2.709336609,-0.8646548219,3.364776906E0,0
8.553610458,-1.953803256,-2.768107558,-0.9962779851,3.531619521E0,0
8.563622458,-2.099783088,-2.879063737,-1.086719355,3.725460505E0,0
8.573634458,-2.226848931,-2.951608973,-1.143452988,3.870185580E0,0
8.583646458,-2.321398993,-2.950825446,-1.228670747,3.950429838E0,0
8.593658458,-2.287551216,-2.870724438,-1.262391494,3.881698295E0,0
8.603670458,-2.165989941,-2.7368653,-1.201665967,3.691333796E0,0
8.613682458,-2.136684281,-2.59434585,-1.19082289,3.565684964E0,0
8.623693458,-2.217062446,-2.509049007,-1.160164623,3.543539863E0,0
8.633705458,-2.275143424,-2.427646995,-1.175871559,3.528798869E0,0
8.643717458,-2.306675119,-2.302518919,-1.196806346,3.471986305E0,0
8.653729458,-2.401975379,-2.131173865,-1.25347946,3.447114521E0,0
8.663741458,-2.502864992,-1.981067653,-1.288358101,3.442212779E0,0
8.673753458,-2.346264278,-1.683960686,-1.269008057,3.154530250E0,0
8.683765458,-1.939776955,-1.293723945,-1.053282491,2.558487891E0,0
8.693777458,-1.399378454,-0.8779652774,-0.6670557703,1.781585386E0,0
8.703789458,-0.8225319189,-0.5600825679,-0.3153229447,1.043877292E0,0
8.713801458,-0.3159215534,-0.2130930036,-0.03863883957,3.830248243E-1,0
8.723813458,0.1723168606,0.1653031254,0.1661053634,2.908766327E-1,0
8.733824458,0.408474791,0.3979796237,0.3218026829,6.548254748E-1,0
8.743836458,0.5313031572,0.5629880494,0.4334649137,8.872037083E-1,0
8.753848458,0.7351061046,0.7578997207,0.7162219369,1.275839659E0,0
8.763860458,1.084280189,0.9395680332,1.048230204,1.776861890E0,0
8.773872458,1.613329829,1.171203727,1.214879504,2.334627062E0,0
8.783884458,2.184086489,1.59406033,1.190632271,2.954465659E0,0
8.793896458,2.753259138,2.115725521,1.0774388,3.635602389E0,0
8.803908458,2.885774587,2.540534509,0.7349083225,3.914345514E0,0
8.813920458,2.395867378,2.636854523,0.2759382927,3.573419120E0,0
8.823932458,1.486985532,2.629677066,-0.221439904,3.029086178E0,0
8.833944458,0.6750704026,2.570954064,-0.7484741552,2.761473956E0,0
8.843956458,0.3941093516,2.485939642,-0.9927741873,2.705701142E0,0
8.853967458,1.031295644,2.613832866,-0.5057572567,2.855080272E0,0
8.863979458,2.78060949,2.871513813,0.4452005678,4.021888146E0,0
8.873991458,4.712700865,3.023223916,1.182282447,5.722519032E0,0
8.884003458,6.284653457,3.016954531,1.561249702,7.143975388E0,0
8.894015458,6.989882628,2.82225219,1.805965033,7.751456398E0,0
8.904027458,6.134093501,2.10550108,1.686366669,6.701049949E0,0
8.914039458,4.2003345,0.9145051128,1.266786261,4.481503871E0,0
8.924051458,2.289287254,-0.221013642,0.8686822379,2.458514184E0,0
8.934063458,0.8521761328,-1.034737315,0.6825554234,1.504249773E0,0
8.944075458,0.07492037416,-1.54573894,0.6916919902,1.695098741E0,0
8.954086458,-0.191802122,-1.793427579,0.5805671185,1.894789887E0,0
8.964098458,-0.115022918,-1.908379161,0.1902887164,1.921288914E0,0
8.974110458,0.0277105397,-1.875219601,-0.5318722375,1.949385674E0,0
8.984122458,0.1630583793,-1.741224223,-1.393268406,2.235988971E0,0
8.994134458,0.2240308052,-1.628515048,-2.024004927,2.607459877E0,0
9.004146458,0.1373177665,-1.567459007,-2.461235155,2.921209064E0,0
9.014158458,0.02131485522,-1.517424967,-2.666059611,3.067720115E0,0
9.024170458,-0.3160338199,-1.490289794,-2.644709673,3.052102603E0,0
9.034182458,-0.7525050795,-1.61328539,-2.534498429,3.097198077E0,0
9.044194458,-1.19224084,-1.869484068,-2.415379098,3.278790186E0,0
9.054206458,-1.579553388,-2.098594934,-2.333746558,3.513611048E0,0
9.064217458,-1.888480502,-2.254441942,-2.288654147,3.726500353E0,0
9.074229458,-2.10487075,-2.339903092,-2.192375648,3.835640538E0,0
9.084241458,-2.173203067,-2.344862115,-1.851627987,3.694552220E0,0
9.094253458,-2.270131776,-2.307063959,-1.502495125,3.568407767E0,0
9.104265458,-2.341338583,-2.275940984,-1.283631651,3.508487415E0,0
9.114277458,-2.415002391,-2.200085641,-1.198735342,3.479882152E0,0
9.124289458,-2.355796409,-2.02691801,-1.166972097,3.319638115E0,0
9.134301458,-2.160552031,-1.702818541,-1.105545343,2.964760794E0,0
9.144313458,-2.092672289,-1.426758626,-1.228077986,2.814798932E0,0
9.154325583,-2.147988703,-1.225160079,-1.413604291,2.848359138E0,0
9.164337583,-2.067895297,-0.9846319395,-1.421275838,2.695499216E0,0
9.174348583,-1.846616777,-0.644843806,-1.249118607,2.320800368E0,0
9.184360583,-1.458556954,-0.2406029838,-1.017305596,1.794488468E0,0
9.194372583,-0.9156950212,0.2267398202,-0.7283609028,1.191812872E0,0
9.204384583,-0.5327860111,0.6753691953,-0.5202314544,1.005298587E0,0
9.214396583,-0.05536728501,1.164119241,-0.2506906003,1.192092664E0,0
9.224408583,0.4866345227,1.722198552,0.1319984083,1.794492851E0,0
9.234420583,0.920607267,2.216411651,0.5814107256,2.469420333E0,0
9.244432583,1.203367506,2.638701074,1.100942853,3.102081862E0,0
9.254444583,1.471735994,3.059973081,1.771883513,3.830014788E0,0
9.264456583,1.908252277,3.392196087,2.24260133,4.491957454E0,0
9.274467583,2.421675818,3.649413934,2.534545206,5.060301892E0,0
9.284479583,2.750889847,3.802051406,2.442381978,5.290389359E0,0
9.294491583,2.558854421,3.770881653,1.827469923,4.909880926E0,0
9.304503583,1.725926737,3.530934142,1.079481817,4.075733065E0,0
9.314515583,0.5299045032,3.106360797,0.3919909054,3.175520911E0,0
9.324527583,-0.7699970251,2.758368436,-0.2133254305,2.871758970E0,0
9.334539583,-1.442428579,2.704423778,-0.4897436334,3.103926063E0,0
9.344551583,-1.274942688,2.827787749,-0.2062959078,3.108765095E0,0
9.354563583,-0.418670581,2.916143271,0.5450492303,2.996039935E0,0
9.364575583,0.6498998934,2.742520727,1.284942597,3.097558278E0,0
9.374587583,1.42180428,2.410051553,1.781872312,3.317370169E0,0
9.384598583,1.768722509,2.10721373,2.107972698,3.465873326E0,0
9.394610583,1.209125844,1.547610633,2.121678572,2.891125030E0,0
9.404622583,-0.03871441483,0.7912990165,1.754236324,1.924837141E0,0
9.414634583,-1.133117888,0.1901637322,1.303536742,1.737620911E0,0
9.424646583,-1.936069821,-0.1940620708,0.948963047,2.164845792E0,0
9.434658583,-2.39895997,-0.412088955,0.7831930214,2.556993851E0,0
9.444670583,-1.987176824,-0.4546180934,0.8374423188,2.203828255E0,0
9.454682583,-0.6928184563,-0.2397177154,1.089682724,1.313343228E0,0
9.464694583,0.6842920464,0.04509840488,1.181804144,1.366363973E0,0
9.474705583,1.775421664,0.2845301914,1.182273968,2.151941275E0,0
9.484717583,2.449723742,0.3166518706,1.124606681,2.714066139E0,0
9.494729583,2.490895157,0.0004186606407,0.9008436781,2.648788061E0,0
9.504741583,1.828300958,-0.5419556147,0.4778835797,1.965902591E0,0
9.514753583,0.9022230363,-1.212037173,0.05954088137,1.512146035E0,0
9.524765583,0.09717487693,-1.879192784,-0.2788747644,1.902256453E0,0
9.534777583,-0.7316691113,-2.498362051,-0.4849066705,2.648072338E0,0
9.544789583,-1.496218286,-3.004728003,-0.5924137236,3.408520728E0,0
9.554801583,-1.989105821,-3.412509314,-0.5912610912,3.993914304E0,0
9.564813583,-2.327918639,-3.68171103,-0.5294688857,4.387999384E0,0
9.574825583,-2.471871825,-3.809134723,-0.5667586264,4.576119863E0,0
9.584836583,-2.582202353,-3.87063983,-0.6049438682,4.692076168E0,0
9.594848583,-2.696667446,-3.867086477,-0.6455676913,4.758479882E0,0
9.604860583,-2.663403806,-3.743448272,-0.8142037296,4.665838886E0,0
9.614872583,-2.581512966,-3.553687413,-1.020212393,4.509294485E0,0
9.624884583,-2.5356515,-3.32032796,-1.28976728,4.372368457E0,0
9.634896583,-2.50154586,-3.033781648,-1.431155732,4.184467650E0,0
9.644908583,-2.566377448,-2.768546099,-1.549325037,4.080630929E0,0
9.654920583,-2.505972787,-2.498577814,-1.552705166,3.864412508E0,0
9.664932583,-2.232202057,-2.167964546,-1.416936619,3.419138149E0,0
9.674944583,-1.643764002,-1.737125325,-1.157748845,2.657056054E0,0
9.684955583,-0.8514124864,-1.196541467,-0.8028076525,1.673653139E0,0
9.694967583,-0.02053483665,-0.5534705365,-0.3926671359,6.789247336E-1,0
9.704979583,0.5510977364,0.04169006288,0.05367320046,5.552725356E-1,0
9.714991583,0.8073899692,0.4325232196,0.5016718072,1.044332083E0,0
9.725003583,1.000072682,0.8185663372,0.9596707606,1.609709348E0,0
9.735015583,1.328253508,1.219514008,1.513029031,2.353875239E0,0
9.745027583,1.860724354,1.613567811,2.202961301,3.304381136E0,0
9.755039583,2.437368575,1.976830761,2.625389303,4.091612692E0,0
9.765051583,2.761284442,2.415825094,2.526781858,4.454832120E0,0
9.775063583,2.510955784,2.724672686,1.932732668,4.179018517E0,0
9.785074583,1.925605643,2.804345677,1.080402169,3.569254911E0,0
9.795086583,1.356131862,2.7824882,0.3113529776,3.110992589E0,0
9.805098583,1.065596581,2.85230337,-0.2741351576,3.057168735E0,0
9.815110583,1.307372516,2.951428878,-0.5045199859,3.267215288E0,0
9.825122583,2.482759341,3.171497025,-0.1704831737,4.031321352E0,0
9.835134583,4.672405363,3.494604807,0.6250948352,5.868081303E0,0
9.845146583,7.216393822,3.784649507,1.473010979,8.280680711E0,0
9.855158583,9.042192172,3.926656741,2.382723714,1.014185608E1,0
9.865170583,8.902192873,3.344248919,2.823231599,9.919862672E0,0
9.875182583,6.659655277,1.809548938,2.439063098,7.319460675E0,0
9.885193583,3.858044928,0.1102732247,1.77124412,4.246642978E0,0
9.895205583,1.501335769,-1.262420291,1.123615578,2.260580910E0,0
9.905217583,-0.2688807034,-2.357741193,0.5695816621,2.440422839E0,0
9.915229583,-1.338739904,-3.068367344,0.04258059382,3.347971893E0,0
9.925241583,-1.753406897,-3.312431295,-0.6666246843,3.806707934E0,0
9.935253583,-1.458375691,-3.221270864,-1.460854325,3.825903945E0,0
9.945265583,-0.8027203828,-2.872524211,-2.226739004,3.722112565E0,0
9.955277583,-0.3817302114,-2.449296895,-2.885086954,3.803748147E0,0
9.965289583,-0.1471767569,-2.10088061,-3.354598491,3.960895274E0,0
9.975301583,0.05736118555,-1.808673609,-3.463647308,3.907869395E0,0
9.985312583,-0.03220587909,-1.612811181,-3.434445729,3.794418873E0,0
9.995324583,-0.1492876017,-1.461237318,-3.351835681,3.659549661E0,0
10.00533658,-0.2063131571,-1.338186173,-3.245105869,3.516250767E0,0
10.01534858,-0.3891871655,-1.355709693,-3.11580522,3.420183853E0,0
10.02536058,-0.6604166955,-1.483757869,-2.926678784,3.347108652E0,0
10.03537258,-1.026503851,-1.658048165,-2.638409883,3.280859732E0,0
10.04538458,-1.446512275,-1.792225977,-2.180696566,3.171735995E0,0
10.05539658,-1.796243598,-1.901919742,-1.810364332,3.181384728E0,0
10.06540858,-2.0367349,-1.947238587,-1.364875789,3.130960410E0,0
10.07542058,-2.102074612,-1.846880486,-0.9971096054,2.970507157E0,0
10.08543158,-2.12720419,-1.693088189,-0.7908122358,2.831418245E0,0
10.09544358,-2.238818766,-1.571559075,-0.7526948217,2.837015490E0,0
10.10545558,-2.236828959,-1.401093442,-0.7577380452,2.746021408E0,0
10.11546758,-1.967456505,-1.126638588,-0.6890417397,2.369594507E0,0
10.12547958,-1.653905997,-0.7449762046,-0.6301816204,1.920292548E0,0
10.13549158,-1.255196056,-0.392678538,-0.5928336999,1.442624473E0,0
10.14550358,-0.7262522507,0.03156327009,-0.5578419149,9.163111773E-1,0
10.155515,-0.140655942,0.4934669942,-0.6260072932,8.094312197E-1,0
10.165527,0.2845196664,0.9226257259,-0.7443344727,1.219107656E0,0
10.175539,0.6709621489,1.412582052,-0.6324471241,1.686881034E0,0
10.18555,0.8597108549,1.834960937,-0.2772020222,2.045244571E0,0
10.195562,0.7288016367,2.034895951,0.06601331055,2.162478003E0,0
10.205574,0.667604093,2.172283884,0.6334537223,2.359189716E0,0
10.215586,0.7509619993,2.421876377,1.28096459,2.840827237E0,0
10.225598,0.9767674345,2.75462037,1.868080151,3.468678633E0,0
10.23561,1.334167966,3.038616711,2.2319287,3.999337620E0,0
10.245622,1.542302531,3.314336902,2.215457386,4.274549991E0,0
10.255634,1.151890374,3.455512662,1.915268936,4.115297594E0,0
10.265646,0.2287799138,3.413462995,1.461382037,3.720175712E0,0
10.275658,-0.6314028114,3.355253379,1.00953143,3.560273649E0,0
10.285669,-0.8738903528,3.280994909,0.8402179921,3.497796195E0,0
10.295681,-0.3235270268,3.147287799,1.005245129,3.319730108E0,0
10.305693,1.207674565,3.201246489,1.602534115,3.778170527E0,0
10.315705,3.09390272,3.327269774,2.300941924,5.092866769E0,0
10.325717,4.59625415,3.351259146,2.780480851,6.331474065E0,0
10.335729,4.835668979,3.005809738,2.930469534,6.403611352E0,0
10.345741,3.365038109,2.01128314,2.452674832,4.624322132E0,0
10.355753,1.08569463,0.7628119665,1.686987205,2.146285339E0,0
10.365765,-0.7522571576,-0.2584387457,1.179267038,1.422445838E0,0
10.375776,-1.952699302,-0.9683293176,1.053817803,2.420997355E0,0
10.385788,-2.408319608,-1.395319902,1.165503715,3.017502257E0,0
10.3958,-2.060394489,-1.520923941,1.472846672,2.954270198E0,0
10.405812,-1.209966089,-1.487698892,1.745014388,2.592747798E0,0
10.415824,-0.3504581326,-1.384600786,1.781167138,2.283089269E0,0
10.425836,0.3366288829,-1.267487488,1.586568877,2.058408205E0,0
10.435848,0.6061773384,-1.305119584,1.209968428,1.880109489E0,0
10.44586,0.3995034081,-1.523901343,0.6624716994,1.709019318E0,0
10.455872,-0.2247529364,-1.900629846,0.1362763774,1.918718048E0,0
10.465884,-0.965365364,-2.350950236,-0.3190283252,2.561381731E0,0
10.475895,-1.603816409,-2.713653023,-0.6924578293,3.227326703E0,0
10.485907,-2.150918158,-2.935797517,-0.9895836541,3.771555620E0,0
10.495919,-2.522364872,-3.070410361,-1.167837485,4.141689115E0,0
10.505931,-2.685427929,-3.134043855,-1.157833191,4.286529102E0,0
10.515943,-2.642878325,-3.095316576,-0.9991113997,4.190944301E0,0
10.525955,-2.559308749,-3.053110204,-0.7286326522,4.049993671E0,0
10.535967,-2.481325604,-3.012175602,-0.5595706442,3.942498943E0,0
10.545979,-2.458844229,-2.889171234,-0.5927527159,3.839867334E0,0
10.555991,-2.392278357,-2.705613102,-0.6816058356,3.675312845E0,0
10.566003,-2.362392068,-2.527084744,-0.7641036165,3.542726058E0,0
10.576014,-2.457849618,-2.369993448,-0.89793118,3.530463722E0,0
10.586026,-2.53547316,-2.204603199,-0.9806722051,3.500088197E0,0
10.596038,-2.355329216,-1.909330503,-0.9204979241,3.168664563E0,0
10.60605,-2.037509657,-1.559455923,-0.7214056398,2.665290692E0,0
10.616062,-1.711634388,-1.223793585,-0.5078664936,2.164553393E0,0
10.626074,-1.530039166,-0.9653647792,-0.3893587813,1.850553773E0,0
10.636086,-1.176077966,-0.6683519518,-0.2327893496,1.372605040E0,0
10.646098,-0.6359326494,-0.2880262417,-0.09785315394,7.049430404E-1,0
10.65611,-0.07161669731,0.1820150524,0.09914027229,2.192879938E-1,0
10.666121,0.3990075642,0.6797429127,0.3498821819,8.623659344E-1,0
10.676133,0.6995866084,1.071378892,0.7094697185,1.463086270E0,0
10.686145,0.8900924027,1.294144945,1.091024952,1.912435899E0,0
10.696157,1.073380394,1.406768165,1.480645981,2.307261290E0,0
10.706169,1.364434909,1.555623073,1.776729686,2.727345622E0,0
10.716181,1.691393666,1.715352048,1.818607444,3.018373439E0,0
10.726193,2.022075931,1.835871933,1.576181737,3.153341988E0,0
10.736205,2.191825864,1.967961119,1.083555719,3.138640562E0,0
10.746217,2.150007747,2.147968238,0.494945755,3.079167446E0,0
10.756228,1.8972408,2.302607796,0.07384463266,2.984456122E0,0
10.76624,1.249986187,2.329734784,-0.2773240829,2.658390167E0,0
10.776252,0.7148086649,2.306132498,-0.5496236533,2.476143107E0,0
10.786264,0.5381215954,2.299447961,-0.5284941548,2.419987985E0,0
10.796276,0.6280891943,2.211199443,-0.3419897564,2.323974184E0,0
10.806288,1.140270202,2.180334331,0.01698835418,2.460561426E0,0
10.8163,2.248822768,2.19635921,0.4721334279,3.178695895E0,0
10.826312,3.446165888,2.216317511,0.7699134099,4.169039373E0,0
10.836324,4.337481528,2.214129483,0.8461704576,4.942885778E0,0
10.846336,4.775834422,2.061125976,0.9250148982,5.283226975E0,0
10.856347,4.490671561,1.625015489,0.9103535897,4.861640677E0,0
10.866359,3.545407171,0.8529251611,0.7614057112,3.725202275E0,0
10.876371,2.414860303,0.01242065549,0.5576472026,2.478442043E0,0
10.886383,1.530896367,-0.6263040394,0.3539421961,1.691500965E0,0
10.896395,1.043499953,-1.020578282,0.1281288671,1.465226668E0,0
10.906407,0.8210660219,-1.22505249,-0.179855091,1.485681955E0,0
10.916419,0.7569565648,-1.375311314,-0.5274284998,1.656093378E0,0
10.926431,0.6421517479,-1.496434633,-0.9541834411,1.887363642E0,0
10.936443,0.5885292721,-1.549975832,-1.364136116,2.147011674E0,0
10.946454,0.4978032893,-1.578994394,-1.760448698,2.416652857E0,0
10.956466,0.3360020614,-1.638583369,-1.994657898,2.603173635E0,0
10.966478,-0.05019425333,-1.775730397,-2.031187208,2.698417940E0,0
10.97649,-0.690674867,-2.016377819,-2.039391291,2.949903069E0,0
10.986502,-1.272037207,-2.33561182,-1.98289637,3.317384398E0,0
10.996514,-1.81390219,-2.581042265,-1.85040051,3.657321749E0,0
11.006526,-2.165356688,-2.673814774,-1.639120435,3.811137734E0,0
11.016538,-2.405784255,-2.719795523,-1.48115425,3.921594508E0,0
11.02655,-2.53292085,-2.760679255,-1.348227012,3.981802865E0,0
11.036561,-2.62591029,-2.714316682,-1.280370074,3.987764716E0,0
11.046573,-2.731136198,-2.551754147,-1.342389444,3.971468693E0,0
11.056585,-2.742384487,-2.39468624,-1.452650097,3.919870810E0,0
11.066597,-2.638369537,-2.140864456,-1.515746816,3.720454655E0,0
11.076609,-2.599484968,-1.80664521,-1.522847237,3.512883818E0,0
11.086621,-2.519537743,-1.53000876,-1.523897396,3.318321943E0,0
11.096633,-2.388650159,-1.269598333,-1.622747939,3.154495266E0,0
11.106645,-2.308967813,-0.9372040039,-1.68198725,3.006453861E0,0
11.116657,-2.126230629,-0.5750678122,-1.677984978,2.768969711E0,0
11.126668,-1.699497907,-0.1987714183,-1.526433188,2.292989640E0,0
11.13668,-1.139512988,0.2513302857,-1.331731139,1.770639599E0,0
11.146692,-0.5716208786,0.7338425213,-0.9851448865,1.354911703E0,0
11.15670408,-0.07470578134,1.123410341,-0.4903594914,1.228040788E0,0
11.16671608,0.3336304307,1.487625217,-0.090433622,1.527257769E0,0
11.17672808,0.5133065969,1.803040987,0.4165519886,1.920405171E0,0
11.18674008,0.469298113,2.050626715,0.9828770439,2.321929785E0,0
11.19675208,0.4627960092,2.317472003,1.413807336,2.753853267E0,0
11.20676408,0.7262148285,2.699879907,1.839512263,3.346721508E0,0
11.21677608,1.221586261,3.202317114,2.258969733,4.104881503E0,0
11.22678708,1.643022575,3.650731312,2.58366708,4.764734817E0,0
11.23679908,1.887894611,3.852026389,2.673416871,5.054642532E0,0
11.24681108,1.779793042,3.866447377,2.51944448,4.946178229E0,0
11.25682308,1.15314694,3.80614855,2.028747896,4.464564108E0,0
11.26683508,0.2333115059,3.593656055,1.230772821,3.805732497E0,0
11.27684708,-0.3585354763,3.484777392,0.6443415302,3.561937277E0,0
11.28685908,-0.5785638624,3.483356518,0.3788443181,3.551342252E0,0
11.29687108,-0.08918816507,3.416669608,0.5138357699,3.456242604E0,0
11.30688208,1.309647083,3.459537885,1.21419538,3.893308141E0,0
11.31689408,3.090197924,3.485187281,2.102966897,5.110608903E0,0
11.32690608,4.643281551,3.392887813,2.85483463,6.420423042E0,0
11.33691808,4.763725423,2.92145722,3.05669981,6.369568739E0,0
11.34693008,3.073545638,1.832042007,2.580194711,4.411401756E0,0
11.35694208,0.7343032819,0.3697194457,1.842621959,2.017708964E0,0
11.36695408,-1.244460568,-0.7061746663,1.231023082,1.887533468E0,0
11.37696608,-2.769427859,-1.337115548,0.8972061253,3.203527351E0,0
11.38697808,-3.441039634,-1.648472764,0.8897102872,3.917882159E0,0
11.39699008,-3.198948534,-1.713416035,1.103936774,3.793117798E0,0
11.40700108,-2.210244008,-1.524381984,1.396877015,3.026579655E0,0
11.41701308,-1.166690846,-1.287398427,1.439821744,2.256468235E0,0
11.42702508,-0.2377629912,-1.094706944,1.216696819,1.653863864E0,0
11.43703708,0.676739198,-0.9463759464,1.031167005,1.554641041E0,0
11.44704908,1.190438728,-0.9294792473,0.8033536363,1.710687903E0,0
11.45706108,1.111310112,-1.057803411,0.4687964219,1.604284360E0,0
11.46707308,0.4890172631,-1.437348518,0.06171005219,1.519512019E0,0
11.47708508,-0.4338125306,-1.993772483,-0.3629574332,2.072452684E0,0
11.48709608,-1.23700303,-2.519048331,-0.7371403509,2.901578344E0,0
11.49710808,-2.088048896,-3.017527558,-1.093698299,3.829046451E0,0
11.50712008,-2.663969232,-3.288653008,-1.261376856,4.416224886E0,0
11.51713208,-2.942199048,-3.398313444,-1.21435574,4.656149629E0,0
11.52714408,-3.045041631,-3.429573244,-1.109939525,4.718709243E0,0
11.53715608,-2.986251386,-3.388842124,-0.9923129882,4.624568450E0,0
11.54716808,-2.834610865,-3.244183763,-0.834209978,4.388126404E0,0
11.55718008,-2.66837277,-3.077854452,-0.7702081096,4.145675071E0,0
11.56719208,-2.608330636,-2.96240878,-0.8738967848,4.042641473E0,0
11.57720308,-2.594576231,-2.783491582,-1.034453871,3.943316627E0,0
11.58721508,-2.561616061,-2.590700111,-1.172419363,3.827292917E0,0
11.59722708,-2.428010691,-2.318422176,-1.189560476,3.561652907E0,0
11.60723908,-2.241484512,-1.969224703,-1.114996928,3.185171408E0,0
11.61725108,-2.027957645,-1.6242267,-0.9743773851,2.774911867E0,0
11.62726308,-1.759623072,-1.320356258,-0.8709111965,2.366030497E0,0
11.63727508,-1.278568547,-0.9245944834,-0.7300161034,1.738544218E0,0
11.64728708,-0.7658729839,-0.4578510189,-0.5884456569,1.068857930E0,0
11.65729908,-0.2045747799,0.0001192831993,-0.2916620404,3.562549657E-1,0
11.66731008,0.3014374155,0.4871683735,0.2263167742,6.159681987E-1,0
11.67732208,0.9022961265,1.0074162,0.8167342584,1.579898905E0,0
11.68733408,1.278090245,1.526749522,1.354325511,2.408044096E0,0
11.69734608,1.686039371,1.857500784,1.723038651,3.043337003E0,0
11.70735808,2.177224782,2.038781426,1.97766969,3.578842670E0,0
11.71737008,2.63405897,2.191204305,1.940763234,3.937791880E0,0
11.72738208,2.998753903,2.42406616,1.644080044,4.191851728E0,0
11.73739408,2.812459273,2.704256548,1.130608555,4.062167690E0,0
11.74740608,1.943263065,2.716245679,0.44231906,3.368962463E0,0
11.75741708,1.003974529,2.616489256,-0.2574882808,2.814299397E0,0
11.76742908,0.4631784171,2.616731331,-0.754576748,2.762463244E0,0
11.77744108,0.3089551806,2.608414836,-1.094827689,2.845686021E0,0
11.78745308,1.154358484,2.726653138,-0.9342108142,3.104823777E0,0
11.79746508,3.680960248,3.146701323,0.04146085203,4.842821137E0,0
11.80747708,6.837702994,3.675565606,1.070759672,7.836484609E0,0
11.81748908,9.299528133,4.157221225,1.848907131,1.035288218E1,0
11.82750108,9.919022505,3.879864398,1.9617964,1.083000463E1,0
11.83751208,8.143106752,2.370976365,1.326141493,8.584309393E0,0
11.84752408,5.140050468,0.5659964418,0.6763094276,5.215157258E0,0
11.85753608,2.52040547,-0.8013375163,0.2752354574,2.659011114E0,0
11.86754808,0.627272923,-1.893858186,0.2056170461,2.005604278E0,0
11.87756008,-0.4142231888,-2.600263817,0.4169167086,2.665853018E0,0
11.88757208,-0.7328514183,-3.018898146,0.6402209973,3.171860675E0,0
11.89758408,-0.7567326164,-3.168639491,0.575835844,3.308248388E0,0
11.90759608,-0.6262139922,-3.128501864,0.1081769979,3.192392542E0,0
11.91760808,-0.465822528,-2.994286045,-0.6553588539,3.100360427E0,0
11.92761908,-0.4054231292,-2.805491731,-1.659096571,3.284471525E0,0
11.93763108,-0.5914692521,-2.618449827,-2.503922169,3.670931980E0,0
11.94764308,-0.9344961584,-2.45010615,-3.0950631,4.056564902E0,0
11.95765508,-1.110796727,-2.312510056,-3.380295834,4.243580098E0,0
11.96766708,-1.346604994,-2.099971953,-3.430240411,4.241435664E0,0
11.97767908,-1.553098245,-1.913734626,-3.332137581,4.144591082E0,0
11.98769108,-1.550019686,-1.772662947,-3.127990817,3.915254973E0,0
11.99770308,-1.458822418,-1.681948659,-2.810427366,3.585472928E0,0
12.00771408,-1.332147753,-1.554499823,-2.393539309,3.149621844E0,0
12.01772608,-1.288740363,-1.434298026,-2.009598119,2.785057836E0,0
12.02773808,-1.39643555,-1.400847859,-1.777959355,2.659613964E0,0
12.03775008,-1.699068137,-1.487332857,-1.599805219,2.767375706E0,0
12.04776208,-1.948756524,-1.499350054,-1.403280886,2.831059841E0,0
12.05777408,-2.075783191,-1.395566654,-1.163809338,2.758792185E0,0
12.06778608,-2.092318532,-1.239988618,-0.9386760405,2.607006199E0,0
12.07779808,-2.118582471,-1.07606719,-0.7705766304,2.498019341E0,0
12.08781008,-2.041783971,-0.8599827504,-0.7057519126,2.325196310E0,0
12.09782108,-1.933377762,-0.5962446731,-0.8804652545,2.206507726E0,0
12.10783308,-1.695352231,-0.3489203149,-1.21866163,2.116861059E0,0
12.11784508,-1.321047984,-0.009641473889,-1.374479548,1.906424602E0,0
12.12785708,-0.7718581939,0.4223239213,-1.249262887,1.527998798E0,0
12.13786908,-0.1853514737,0.8249187523,-0.8775781918,1.218601493E0,0
12.14788108,0.1217542326,1.130390747,-0.5775888392,1.275231822E0,0
12.15789371,0.2240764135,1.339523431,-0.09505350709,1.361458200E0,0
12.16790571,0.2500935996,1.544963599,0.3570917988,1.605295575E0,0
12.17791671,0.2094455105,1.791782758,0.6614931679,1.921438545E0,0
12.18792871,0.2349803013,2.055686311,1.037063338,2.314424835E0,0
12.19794071,0.5245045996,2.364978876,1.48627685,2.842050146E0,0
12.20795271,1.107353302,2.832681869,2.057590165,3.672055989E0,0
12.21796471,1.597059951,3.33682354,2.570997918,4.504999680E0,0
12.22797671,1.551269821,3.626591082,2.648021828,4.750854717E0,0
12.23798871,0.8650505322,3.622898566,2.179422019,4.315505391E0,0
12.24800071,0.1024683613,3.399265371,1.600567988,3.758633091E0,0
12.25801171,-0.3867588168,3.250092375,1.21215514,3.490272613E0,0
12.26802371,-0.2512595344,3.224254113,1.062860668,3.404206037E0,0
12.27803571,1.090593427,3.445311025,1.448138093,3.893156305E0,0
12.28804771,3.149895072,3.740822287,2.15887271,5.345682532E0,0
12.29805971,4.905701081,3.847265586,2.698542649,6.793341447E0,0
12.30807171,5.514977444,3.623385639,3.005498081,7.250994305E0,0
12.31808371,4.306321716,2.672831857,2.726893458,5.755378770E0,0
12.32809571,1.747826899,1.248518536,1.876916756,2.852457521E0,0
12.33810671,-0.5710671473,0.07281362236,1.136764796,1.274226712E0,0
12.34811871,-2.19925709,-0.7578851026,0.7356139353,2.439723230E0,0
12.35813071,-3.024143098,-1.226910151,0.6828764355,3.334227080E0,0
12.36814271,-2.920472549,-1.324096722,1.061708182,3.377812355E0,0
12.37815471,-2.010111943,-1.183382893,1.589049705,2.822414579E0,0
12.38816671,-1.11070668,-0.9982764173,1.805992953,2.343466595E0,0
12.39817871,-0.4184209049,-0.8865226775,1.741528717,1.998479618E0,0
12.40819071,0.01238615692,-0.9080275673,1.568145324,1.812111265E0,0
12.41820271,0.05304827929,-1.021724337,1.25037912,1.615605981E0,0
12.42821371,-0.4277688485,-1.286450593,0.7837403208,1.565947064E0,0
12.43822571,-1.309413194,-1.743143864,0.3846047026,2.213827956E0,0
12.44823771,-2.016808174,-2.230056714,0.1332486892,3.009721477E0,0
12.45824971,-2.50317431,-2.554340955,-0.01245822385,3.576408051E0,0
12.46826171,-2.932045943,-2.684454952,-0.1593892515,3.978516901E0,0
12.47827371,-3.189140999,-2.774514352,-0.3192803402,4.239161490E0,0
12.48828571,-3.113829446,-2.733566301,-0.3701176411,4.159964616E0,0
12.49829771,-2.951504892,-2.577187196,-0.3942882764,3.938113535E0,0
12.50830871,-2.816174009,-2.422277496,-0.5363341016,3.753121180E0,0
12.51832071,-2.669194304,-2.335354543,-0.6778642023,3.610814167E0,0
12.52833271,-2.584257649,-2.193786435,-0.7508966567,3.472021358E0,0
12.53834471,-2.443928567,-1.997113582,-0.8297656555,3.263397086E0,0
12.54835671,-2.299610513,-1.750699051,-0.8732356109,3.019221110E0,0
12.55836871,-2.152124439,-1.500469796,-0.8673693918,2.763218933E0,0
12.56838071,-1.93271001,-1.262032621,-0.7450552882,2.425531221E0,0
12.57839271,-1.721816729,-1.104729656,-0.7357183081,2.174019754E0,0
12.58840371,-1.656586946,-0.9853090471,-0.7556017649,2.070277337E0,0
12.59841571,-1.582934248,-0.8853538191,-0.8183991069,1.989801326E0,0
12.60842771,-1.164380611,-0.7323766243,-0.7003783214,1.543595647E0,0
12.61843971,-0.2371256447,-0.3381801492,-0.2774614924,4.975733759E-1,0
12.62845171,0.4875917119,0.09789466918,0.1600284983,5.224348419E-1,0
12.63846371,0.9098121375,0.4085402799,0.5386706489,1.133503134E0,0
12.64847571,1.108446146,0.615659768,0.8797365452,1.543251826E0,0
12.65848771,1.209597715,0.6742915535,1.109936602,1.774754910E0,0
12.66849871,1.253399207,0.7226170367,1.257549561,1.916928755E0,0
12.67851071,1.652452964,0.7731545216,1.496356865,2.359544994E0,0
12.68852271,2.375535439,0.8548997658,1.695749257,3.041313495E0,0
12.69853471,3.043717822,1.231638794,1.613652449,3.658555251E0,0
12.70854671,3.455887468,1.558452541,1.342041242,4.021567755E0,0
12.71855871,3.291257942,1.556874962,0.8832504295,3.746514355E0,0
12.72857071,2.214298468,1.430828873,0.4382856506,2.672542475E0,0
12.73858271,0.9978519094,1.287710668,0.03648969546,1.629490318E0,0
12.74859371,0.2496942347,1.345858889,-0.0666652751,1.370447963E0,0
12.75860571,0.2090631026,1.584988375,0.04781955287,1.599431849E0,0
12.76861771,0.9832169133,2.143324379,0.1323183972,2.361792339E0,0
12.77862971,2.548578524,2.807411372,0.3513059789,3.807916359E0,0
12.78864171,4.469918039,3.286591864,0.7254470891,5.595366551E0,0
12.79865371,5.831140487,3.520302735,0.9209750569,6.873348950E0,0
12.80866571,6.246092239,3.17902707,1.000125818,7.079557403E0,0
12.81867771,5.884415054,2.388646066,0.8741821289,6.410629060E0,0
12.82868871,4.637137297,1.48167743,0.7731995451,4.929122422E0,0
12.83870071,3.122454674,0.4815398437,0.8113391787,3.261882137E0,0
12.84871271,1.755704852,-0.5685557681,0.8138224912,2.016943786E0,0
12.85872471,0.5388671154,-1.368298164,0.6001890586,1.588346480E0,0
12.86873671,-0.175207724,-1.880438826,0.2692689586,1.907682808E0,0
12.87874871,-0.3806069613,-2.078996236,-0.1517915256,2.118992137E0,0
12.88876071,-0.4434604365,-2.092862324,-0.6293276346,2.229973797E0,0
12.89877271,-0.5602305025,-2.082730268,-1.228835054,2.482268957E0,0
12.90878371,-0.6170379567,-2.033458706,-1.948293425,2.882973711E0,0
12.91879571,-0.717017743,-1.918110682,-2.566886741,3.283621564E0,0
12.92880771,-0.9142969519,-1.807577841,-2.869268482,3.512261122E0,0
12.93881971,-1.248366508,-1.812240996,-2.938249839,3.670960158E0,0
12.94883171,-1.629557607,-1.881452733,-2.767916939,3.722457060E0,0
12.95884371,-1.875350579,-1.914828056,-2.640067568,3.762108856E0,0
12.96885571,-1.981856443,-1.956720432,-2.52686138,3.760523666E0,0
12.97886671,-2.046331351,-2.031503397,-2.196348685,3.624696621E0,0
12.98887871,-2.137815717,-2.111603234,-1.843596105,3.525332730E0,0
12.99889071,-2.085102484,-2.099323497,-1.410188933,3.277719380E0,0
13.00890271,-2.082457788,-2.011891251,-1.119296386,3.104377754E0,0
13.01891471,-2.330134149,-1.983932789,-1.045671608,3.234029000E0,0
13.02892671,-2.594438821,-1.971748946,-1.054600161,3.425067620E0,0
13.03893871,-2.67949242,-1.845773608,-1.06471292,3.423473885E0,0
13.04895071,-2.655979596,-1.544067221,-1.132418415,3.274254520E0,0
13.05896171,-2.434063144,-1.202658824,-1.227482447,2.979557819E0,0
13.06897371,-2.08051008,-0.896912595,-1.22604754,2.576075886E0,0
13.07898571,-1.666398574,-0.5440711373,-1.138356262,2.090156116E0,0
13.08899771,-1.187822683,-0.191986894,-1.07813418,1.615597414E0,0
13.09900971,-0.6849983901,0.1560996079,-1.008092138,1.228755322E0,0
13.10902171,-0.1743329805,0.4699804831,-0.922514044,1.049907522E0,0
13.11903371,0.1561335218,0.7947208071,-0.7020260668,1.071820618E0,0
13.12904571,0.4002892739,1.031506729,-0.3509598237,1.160780096E0,0
13.13905671,0.5075704783,1.247026327,0.08974014223,1.349353824E0,0
13.14906871,0.4875063425,1.418497095,0.6144463246,1.620907378E0,0
13.15908058,0.3331848729,1.560335344,1.170130178,1.978601319E0,0
13.16909258,0.3590500313,1.703260006,1.71021176,2.440253232E0,0
13.17910458,0.7657665646,2.056321319,2.365652475,3.226634072E0,0
13.18911658,1.272548838,2.428282002,2.710607209,3.855298363E0,0
13.19912858,1.629010307,2.712615727,2.711472012,4.167018015E0,0
13.20913958,1.561743354,2.912452508,2.317039748,4.036098996E0,0
13.21915158,0.7448978519,2.849758077,1.483063074,3.297797748E0,0
13.22916358,-0.1820910662,2.702106526,0.7566413999,2.811946487E0,0
13.23917558,-0.5727148926,2.748974884,0.2816505839,2.822090061E0,0
13.24918758,-0.07183538318,2.88854032,0.48031646,2.929083373E0,0
13.25919958,1.315736958,3.122549983,1.170606142,3.584940847E0,0
13.26921158,3.184330494,3.481174337,1.93208889,5.098186240E0,0
13.27922358,4.792476767,3.497952338,2.537826079,6.453221314E0,0
13.28923458,5.293098999,3.147152143,2.634392846,6.697871997E0,0
13.29924658,4.00076903,2.351245521,2.137291222,5.109062742E0,0
13.30925858,1.734241478,1.272195666,1.298947847,2.512636231E0,0
13.31927058,-0.2669856209,0.2435704458,0.68824301,7.773585561E-1,0
13.32928258,-1.609437338,-0.4883424944,0.4508057088,1.741261819E0,0
13.33929458,-2.145327635,-0.8082278752,0.5004665498,2.346514379E0,0
13.34930658,-1.794327466,-0.8110573429,0.8182932723,2.132376362E0,0
13.35931858,-1.051186118,-0.8049610358,1.085492901,1.712089180E0,0
13.36932958,-0.5456837994,-0.9205721837,1.014394706,1.474523846E0,0
13.37934158,-0.01030103981,-0.9850219488,0.8063770853,1.273035096E0,0
13.38935358,0.5725844997,-0.9429886544,0.6785465723,1.295185725E0,0
13.39936558,0.7979706895,-0.9064675301,0.5757782489,1.337894314E0,0
13.40937758,0.5832849044,-1.037709455,0.3072374149,1.229413283E0,0
13.41938958,0.04336645961,-1.334105986,0.09381214321,1.338103191E0,0
13.42940158,-0.6380382317,-1.730727886,0.00644012332,1.844601116E0,0
13.43941258,-1.318715529,-2.119915051,-0.03527142808,2.496856934E0,0
13.44942458,-1.954604325,-2.485982911,-0.1705819917,3.166968158E0,0
13.45943658,-2.427629453,-2.687931706,-0.3079436123,3.634995308E0,0
13.46944858,-2.728665165,-2.73093213,-0.3747030276,3.878660367E0,0
13.47946058,-2.880716745,-2.724032416,-0.4079643291,3.985638777E0,0
13.48947258,-2.98704193,-2.713605076,-0.4593210089,4.061655794E0,0
13.49948458,-3.023190587,-2.652670072,-0.4940920615,4.052217516E0,0
13.50949658,-3.039178628,-2.563159726,-0.6540638418,4.029167907E0,0
13.51950758,-2.985480723,-2.410473137,-0.8755152941,3.935734103E0,0
13.52951958,-2.764530816,-2.171808506,-1.061191727,3.672262341E0,0
13.53953158,-2.476803367,-1.90323595,-1.199086029,3.345843587E0,0
13.54954358,-2.214275079,-1.630355752,-1.270910302,3.029238683E0,0
13.55955558,-1.907820168,-1.394574966,-1.237950132,2.667796405E0,0
13.56956758,-1.630118939,-1.144231691,-1.057815106,2.255111243E0,0
13.57957958,-1.371281413,-0.8968541229,-0.780455355,1.814902365E0,0
13.58959158,-1.037495447,-0.6778068995,-0.6139171515,1.383008772E0,0
13.59960258,-0.8444478679,-0.4377336735,-0.5111863965,1.079821514E0,0
13.60961458,-0.598796398,-0.1845907509,-0.2561641788,6.769423596E-1,0
13.61962658,-0.2521705306,0.07466485083,0.008861893862,2.631413111E-1,0
13.62963858,0.02762400091,0.3836954606,0.3787397991,5.398417614E-1,0
13.63965058,0.5325556308,0.8120782667,0.8481193346,1.289338209E0,0
13.64966258,1.281074663,1.350891003,1.368864028,2.310811010E0,0
13.65967458,2.04619628,1.783972047,1.851507242,3.285963260E0,0
13.66968558,2.383303465,1.942081343,1.911085837,3.619953650E0,0
13.67969758,2.326157457,1.944878066,1.421287971,3.348674171E0,0
13.68970958,2.124786952,1.912792055,0.7412130828,2.953453888E0,0
13.69972158,1.580369074,2.024814767,0.1000530227,2.570496422E0,0
13.70973358,0.9423706037,2.174366078,-0.5853372771,2.441014118E0,0
13.71974558,0.4380809981,2.403168796,-1.128949993,2.691033873E0,0
13.72975758,-0.1040950567,2.586155071,-1.467080441,2.975123333E0,0
13.73976858,-0.4339955485,2.539608895,-1.541641357,3.002436269E0,0
13.74978058,-0.3320195228,2.403978635,-1.293061602,2.749792455E0,0
13.75979258,0.6329868221,2.471275409,-0.5455558915,2.608736418E0,0
13.76980458,2.929479015,2.887639264,0.4308326434,4.135930921E0,0
13.77981658,5.520863836,3.261167586,1.251472988,6.533095450E0,0
13.78982858,7.419626082,3.343713899,1.755583669,8.325463822E0,0
13.79984058,7.684518984,2.916697002,1.991537678,8.457255804E0,0
13.80985158,5.971423962,1.751810022,1.666238798,6.442289517E0,0
13.81986358,3.334672349,0.263660894,1.021254805,3.497501697E0,0
13.82987558,1.344623373,-0.9205990809,0.5735761875,1.727571800E0,0
13.83988758,0.06762304902,-1.632784685,0.4856755793,1.704828282E0,0
13.84989958,-0.3283702755,-1.930153608,0.7595229077,2.100046436E0,0
13.85991158,-0.02448053777,-1.893935954,1.062420227,2.171711176E0,0
13.86992358,0.4537550443,-1.828879248,0.9795213269,2.123712545E0,0
13.87993558,0.6972968388,-1.817190079,0.3225941035,1.972934267E0,0
13.88994658,0.8007036781,-1.701052682,-0.448660073,1.932874147E0,0
13.89995858,0.7827860552,-1.602503709,-1.079162267,2.084553512E0,0
13.90997058,0.6003131658,-1.564686842,-1.605250731,2.320657390E0,0
13.91998258,0.1002961206,-1.654611756,-1.889022977,2.513206554E0,0
13.92999458,-0.5178896445,-1.903476271,-1.997893016,2.807669515E0,0
13.94000658,-1.128061216,-2.164576085,-1.990589405,3.149659968E0,0
13.95001858,-1.532645854,-2.354602407,-1.909420112,3.396916392E0,0
13.96002958,-1.665701001,-2.47955799,-1.70812372,3.440996119E0,0
13.97004158,-1.765383748,-2.500741868,-1.465317505,3.393736151E0,0
13.98005358,-1.844141065,-2.508288869,-1.238766842,3.350658534E0,0
13.99006558,-1.874925486,-2.559697589,-1.117601132,3.363990133E0,0
14.00007758,-1.983063308,-2.487285086,-1.04542778,3.348439401E0,0
14.01008958,-2.127429308,-2.319123257,-1.063730149,3.322018960E0,0
14.02010158,-2.130898461,-2.185493914,-1.179280778,3.272279795E0,0
14.03011258,-1.985239057,-1.903693203,-1.210422757,3.005053273E0,0
14.04012458,-1.897530822,-1.593648101,-1.255262422,2.777772712E0,0
14.05013658,-1.728412389,-1.332218505,-1.258088382,2.518928722E0,0
14.06014858,-1.612065076,-1.059254106,-1.185977887,2.264357882E0,0
14.07016058,-1.490772189,-0.7902067566,-1.136169696,2.034136184E0,0
14.08017258,-1.23432559,-0.5171172273,-1.043741443,1.697164131E0,0
14.09018458,-0.913307603,-0.2352714926,-1.023909587,1.392075535E0,0
14.10019558,-0.6647553295,0.0756618011,-0.9513185978,1.163026840E0,0
14.11020758,-0.3961424285,0.3905799723,-0.6864499614,8.835695150E-1,0
14.12021958,-0.1128050691,0.7454802346,-0.1792946354,7.749918258E-1,0
14.13023158,0.07326795101,1.048130947,0.3057623085,1.094274767E0,0
14.14024358,0.2583586389,1.316474876,0.7684859584,1.546100241E0,0
14.15025558,0.47839755,1.617308859,1.165842854,2.050302836E0,0
14.16026737,0.5949495149,1.933232751,1.365452324,2.440453615E0,0
14.17027837,0.7945208323,2.252127614,1.489431422,2.814560020E0,0
14.18029037,1.35540096,2.606236163,1.690756612,3.389430133E0,0
14.19030237,2.077396438,3.043174616,1.843878525,4.120239765E0,0
14.20031437,2.560254829,3.427363581,1.647832933,4.584438819E0,0
14.21032637,2.288947531,3.492343689,1.088363153,4.315122199E0,0
14.22033837,1.214652632,3.21038101,0.4545438337,3.462446728E0,0
14.23035038,0.1632489985,2.926712698,-0.06389954209,2.931958493E0,0
14.24036137,-0.1843644637,2.853063508,-0.2632859413,2.871111479E0,0
14.25037337,0.3210244185,2.903091701,-0.06740962565,2.921565019E0,0
14.26038537,1.602005526,3.049037034,0.5118730058,3.482106046E0,0
14.27039737,3.05925212,3.070064791,1.015659458,4.451503733E0,0
14.28040937,4.285499196,2.862964599,1.440026397,5.351237770E0,0
14.29042137,4.348848515,2.468022603,1.702584506,5.282273467E0,0
14.30043337,2.778043731,1.595344963,1.423876972,3.505720776E0,0
14.31044437,0.6231775331,0.4249037129,0.9219280069,1.191152657E0,0
14.32045637,-1.22211368,-0.5707794642,0.4719410545,1.429013436E0,0
14.33046837,-2.58463304,-1.075956092,0.2942166889,2.815061798E0,0
14.34048037,-3.178070465,-1.31720227,0.3651808369,3.459553547E0,0
14.35049238,-2.862376953,-1.268696108,0.710446642,3.210533611E0,0
14.36050437,-1.670010983,-0.9499187744,1.158553276,2.243552553E0,0
14.37051637,-0.6192558056,-0.6807533115,1.297531506,1.590751656E0,0
14.38052737,0.195327993,-0.5007491165,1.246771973,1.357697704E0,0
14.39053937,0.7123820704,-0.3977369642,1.113417303,1.380355388E0,0
14.40055137,0.7551643932,-0.4472277975,0.7860727751,1.178217455E0,0
14.41056337,0.3521012002,-0.6854468715,0.4548660153,8.948272240E-1,0
14.42057537,-0.4701114607,-1.080158486,0.06664729491,1.179910591E0,0
14.43058737,-1.250394908,-1.526171232,-0.2733706342,1.991837734E0,0
14.44059937,-1.880061096,-1.86858652,-0.4564342386,2.689716996E0,0
14.45061037,-2.324305644,-2.124258948,-0.5614163178,3.198446668E0,0
14.46062237,-2.564465994,-2.283503773,-0.5330399264,3.474911060E0,0
14.47063438,-2.699858857,-2.367407225,-0.4891349383,3.623962997E0,0
14.48064637,-2.824816779,-2.421295164,-0.5519987923,3.761244844E0,0
14.49065837,-2.920665507,-2.469081534,-0.7164922245,3.891016800E0,0
14.50067037,-2.968810896,-2.473311995,-0.9856262586,3.987802588E0,0
14.51068237,-3.029092766,-2.470484281,-1.22590516,4.096527680E0,0
14.52069437,-3.025018426,-2.380838279,-1.260382537,4.050640879E0,0
14.53070537,-3.11333828,-2.22462582,-1.38578514,4.069672682E0,0
14.54071737,-3.238890864,-2.111513187,-1.578050215,4.176020168E0,0
14.55072937,-3.267040529,-1.926666913,-1.705864502,4.158794647E0,0
14.56074137,-3.012602448,-1.649793651,-1.837617035,3.895436942E0,0
14.57075337,-2.531521611,-1.259959783,-1.954571288,3.437506253E0,0
14.58076537,-1.782759919,-0.7978525758,-1.786134347,2.646710707E0,0
14.59077737,-0.9922344893,-0.3732073098,-1.56343276,1.888950760E0,0
14.60078837,-0.300243414,0.0366690588,-1.351403804,1.384840413E0,0
14.61080037,0.3643943864,0.4939400339,-0.9151307648,1.101918483E0,0
14.62081237,0.8831172591,0.8784915268,-0.4692083582,1.331089756E0,0
14.63082437,1.191387731,1.134032977,0.04942563683,1.645563251E0,0
14.64083637,1.431955047,1.246481951,0.9098945832,2.105260236E0,0
14.65084837,1.595931439,1.310267472,1.744200748,2.702967676E0,0
14.66086037,1.862911797,1.426684951,2.353909512,3.323666696E0,0
14.67087137,2.266130526,1.629296821,2.774934475,3.935761302E0,0
14.68088337,2.605714592,1.800106854,2.637248333,4.121311926E0,0
14.69089537,2.81958469,2.046931275,2.061767415,4.048563986E0,0
14.70090737,2.772795855,2.289228197,1.394229104,3.856531782E0,0
14.71091937,2.285656718,2.46729404,0.9244538578,3.488034038E0,0
14.72093137,1.556884902,2.506850454,0.5641750342,3.004410636E0,0
14.73094337,0.9211615831,2.4117911,0.09588468879,2.583499341E0,0
14.74095437,0.7123078108,2.313496481,-0.2945859405,2.438530144E0,0
14.75096637,0.8622988325,2.315713161,-0.5236672783,2.525928371E0,0
14.76097837,1.959945756,2.386422955,-0.3555381936,3.108505958E0,0
14.77099037,3.868673996,2.548636411,0.2071835151,4.637360354E0,0
14.78100237,5.774061137,2.822013624,0.6995032856,6.464738800E0,0
14.79101437,6.814994162,2.88705922,1.004815066,7.469197393E0,0
14.80102637,6.302647678,2.385026055,0.9240006986,6.801874325E0,0
14.81103737,4.583197902,1.301489047,0.4827589881,4.788802876E0,0
14.82104937,2.686162339,0.06793821394,0.0758623606,2.688092039E0,0
14.83106137,1.366636385,-0.6843896949,-0.01397250652,1.528489285E0,0
14.84107337,0.7176509964,-1.00769979,0.03127675653,1.237521739E0,0
14.85108537,0.7081276363,-1.017583339,0.1377829126,1.247359103E0,0
14.86109737,1.032610098,-0.888025412,0.236219911,1.382270810E0,0
14.87110937,1.153670851,-0.8649686712,-0.01452272952,1.441991035E0,0
14.88112037,0.9693075567,-0.893550446,-0.5734180203,1.437636173E0,0
14.89113237,0.879448716,-0.8171811318,-1.193640663,1.692924416E0,0
14.90114437,0.7089170104,-0.6531065065,-1.772715572,2.017828520E0,0
14.91115637,0.8043248588,-0.4574206638,-2.025958482,2.227258385E0,0
14.92116837,0.9334933609,-0.5002363157,-1.85193365,2.133378651E0,0
14.93118037,0.8755609024,-0.7048064178,-1.601733046,1.956759498E0,0
14.94119237,0.4227747416,-0.86110717,-2.372894837,2.559467512E0,0
14.95120337,-1.530080388,-0.4862871981,-1.436945645,2.154630832E0,0
14.96121537,-0.08031881601,-1.250765036,-2.381483227,2.691157121E0,0
14.97122737,-0.5706411776,-0.9550040978,-2.362035388,2.610914658E0,0
14.98123937,-0.8851184687,-0.9221766597,-2.462546686,2.774523504E0,0
14.99125137,-1.028246613,-1.102594253,-2.689367198,3.083131705E0,0
15.00126337,-1.375282663,-1.225754156,-2.344903046,2.982020447E0,0
15.01127537,-1.671815142,-1.227569717,-1.618327444,2.630755974E0,0
15.02128637,-1.878679399,-1.513913714,-1.862624699,3.048071815E0,0
15.03129837,-1.777567007,-1.562566057,-2.355969486,3.339453453E0,0
15.04131037,-1.442177734,-1.192926133,-2.710451088,3.293857082E0,0
15.05132237,-0.9221351445,-1.037289625,-2.810732591,3.134728168E0,0
15.06133437,-0.530079335,-0.8886422932,-2.446255174,2.656093673E0,0
15.07134637,-0.2460525888,-0.5968428433,-2.049514575,2.148784133E0,0
15.08135837,-0.2802785347,-0.3940847933,-1.831681818,1.894443761E0,0
15.09136937,-0.2672927459,-0.2843986291,-1.708866316,1.752869670E0,0
15.10138137,-0.1704314259,-0.207537564,-1.683271299,1.704558881E0,0
15.11139337,-0.1388428666,-0.1208157545,-1.543905838,1.554837298E0,0
15.12140537,-0.3411889802,0.02401159108,-1.101420132,1.153305156E0,0
15.13141737,-0.7127627242,0.242013917,-0.5152157128,9.121670174E-1,0
15.14142937,-0.7940954474,0.3149883378,0.4040414321,9.450157201E-1,0
15.15144137,-0.646260294,0.4263596696,1.634281572,1.808400175E0,0
15.16145258,-0.5132712212,0.5147467661,2.876980959,2.967394652E0,0
15.17146458,-0.4903953056,0.5153566307,3.812171767,3.877980607E0,0
15.18147658,-0.5248041232,0.4311883003,4.318787395,4.371872285E0,0
15.19148858,-0.5353308655,0.2971151537,4.386747243,4.429267200E0,0
15.20150058,-0.5664645115,0.2851365477,4.015611017,4.065380270E0,0
15.21151258,-0.6402724528,0.5403803748,3.261523681,3.367416886E0,0
15.22152358,-0.8203823362,0.9573236883,2.370025608,2.684495708E0,0
15.23153558,-1.140856239,1.284856058,1.329394299,2.172486421E0,0
15.24154758,-1.329435376,1.413571985,0.5453978705,2.015699138E0,0
15.25155958,-1.313543667,1.487435768,0.2016125804,1.994620205E0,0
15.26157158,-0.8370742366,1.449227137,0.8428363752,1.873853177E0,0
15.27158358,-0.0337184076,1.126039833,2.196856223,2.468862067E0,0
15.28159558,0.7269338898,0.7700572515,3.417837297,3.578132591E0,0
15.29160758,1.013179362,0.5797485083,3.99424763,4.161328500E0,0
15.30161858,0.6829790542,0.3201765722,3.60266486,3.680783547E0,0
15.31163058,0.02228154615,-0.0221603626,2.309844895,2.310058655E0,0
15.32164258,-0.6827575909,-0.3015736556,0.7996032321,1.093832678E0,0
15.33165458,-1.229064411,-0.5544136924,-0.224067058,1.366813782E0,0
15.34166658,-1.523139159,-0.8177032882,-0.7244992554,1.874430776E0,0
15.35167858,-1.536032562,-1.029231577,-0.9937021405,2.099084947E0,0
15.36169058,-1.221026244,-1.203857503,-1.065334625,2.018691616E0,0
15.37170158,-0.5556455545,-1.258008567,-0.8530923915,1.618361568E0,0
15.38171358,0.1345274752,-1.169867054,-0.4714943272,1.268461062E0,0
15.39172558,0.5637802009,-1.026547705,-0.3593078935,1.225051210E0,0
15.40173758,0.74710693,-0.9477365935,-0.5137106395,1.311591414E0,0
15.41174958,0.6342002656,-0.9705553526,-0.9233987278,1.482178424E0,0
15.42176158,0.1864646374,-0.9973917335,-1.626787196,1.917288688E0,0
15.43177358,-0.4719778919,-1.028803561,-2.352992669,2.611086823E0,0
15.44178458,-1.11885419,-1.007060689,-2.850386653,3.223462424E0,0
15.45179658,-1.638179326,-1.029900498,-3.1028168,3.656747002E0,0
15.46180858,-1.851981012,-0.989248901,-3.042259526,3.696456422E0,0
15.47182058,-1.723646615,-0.9007378435,-2.672212636,3.304997230E0,0
15.48183258,-1.368942235,-0.7530202192,-2.087612109,2.607521162E0,0
15.49184458,-0.9844535995,-0.6723789293,-1.474772453,1.896363916E0,0
15.50185658,-0.6252356069,-0.6517674941,-1.052600559,1.386970932E0,0
15.51186758,-0.3821018019,-0.5452031583,-0.8817004788,1.104827591E0,0
15.52187958,-0.1963038933,-0.4422752059,-0.9609770286,1.075927240E0,0
15.53189158,-0.1054171121,-0.3993683374,-1.387646601,1.447815915E0,0
15.54190358,-0.2916238873,-0.391084587,-1.997946226,2.056643082E0,0
15.55191558,-0.5523699443,-0.4854615712,-2.520444061,2.625533043E0,0
15.56192758,-0.6806580019,-0.5569952381,-2.70466176,2.844070014E0,0
15.57193958,-0.6831923313,-0.596058147,-2.504194064,2.663273359E0,0
15.58195058,-0.4726243016,-0.6481083065,-2.262802876,2.400769660E0,0
15.59196258,-0.2056163152,-0.6201340574,-1.956984141,2.063160500E0,0
15.60197458,-0.00280914858,-0.5815313244,-1.715055009,1.810966664E0,0
15.61198658,0.1459076187,-0.5878901714,-1.487933366,1.606502284E0,0
15.62199858,0.2081260863,-0.4975512743,-1.118868808,1.242071314E0,0
15.63201058,0.2222354177,-0.2599379718,-1.03927417,1.094096490E0,0
15.64202258,0.2421893334,0.06109287858,-1.039624418,1.069208559E0,0
15.65203358,0.2618301308,0.3746340305,-0.8317699349,9.490768666E-1,0
15.66204558,0.2841682488,0.4915099311,-0.1172436905,5.797238040E-1,0
15.67205758,0.6328476584,0.4656295699,0.9621289301,1.242175162E0,0
15.68206958,0.9814892073,0.4235138297,2.139141281,2.391361631E0,0
15.69208158,1.187990499,0.3783914512,3.076993741,3.319998795E0,0
15.70209358,1.311425806,0.5021641427,3.918940755,4.162944044E0,0
15.71210558,1.269953113,0.9443767834,4.198618342,4.486983887E0,0
15.72211658,0.9406817816,1.39769738,3.538662992,3.919257066E0,0
15.73212858,0.4353333914,1.543410578,2.446167465,2.924955836E0,0
15.74214058,0.09557887942,1.434699145,1.495280392,2.074454244E0,0
15.75215258,0.4129832867,1.210733244,1.411447107,1.904891892E0,0
15.76216458,1.585491966,1.039318609,2.445299154,3.094100176E0,0
15.77217658,2.981006434,0.8463868046,3.808189228,4.909691964E0,0
15.78218858,3.971129494,0.7373239535,4.746135828,6.232120134E0,0
15.79219958,4.276669316,0.6670813519,4.849157921,6.499940808E0,0
15.80221158,3.588181307,0.2319301012,3.759404739,5.202111173E0,0
15.81222358,2.384230395,-0.3827789095,2.071693649,3.181664477E0,0
15.82223558,1.319943299,-0.8755188024,0.6781355131,1.722977440E0,0
15.83224758,0.5408993152,-1.223243362,-0.4317771149,1.405463578E0,0
15.84225958,0.1704517449,-1.304064454,-1.014750363,1.661130999E0,0
15.85227158,0.143460559,-1.212704925,-1.056491881,1.614747430E0,0
15.86228258,0.6034896657,-1.03153421,-0.6786190778,1.374331276E0,0
15.87229458,1.33992645,-0.7426390725,-0.1400454926,1.538352503E0,0
15.88230658,1.796633315,-0.4813857695,0.09752804875,1.862561475E0,0
15.89231858,1.989056266,-0.3450009263,-0.1429246616,2.023807779E0,0
15.90233058,1.870442719,-0.2606574717,-0.7216873294,2.021714837E0,0
15.91234258,1.467025769,-0.2287664652,-1.422230542,2.056024907E0,0
15.92235458,1.004859944,-0.3076918897,-1.905699382,2.176260081E0,0
15.93236558,0.7084052329,-0.4481300229,-2.093939381,2.255491215E0,0
15.94237758,0.5007675353,-0.5450967389,-2.195002071,2.316448288E0,0
15.95238958,0.341689648,-0.5570098561,-2.328653049,2.418602245E0,0
15.96240158,0.1499455597,-0.6569732702,-2.565151287,2.652187526E0,0
15.97241358,-0.001901660711,-0.7262499118,-2.802120227,2.894705566E0,0
15.98242558,-0.1427387202,-0.7869568741,-3.065103428,3.167733336E0,0
15.99243758,-0.3747531675,-0.8595939106,-3.271134165,3.402890000E0,0
16.00244858,-0.7081530717,-0.954239282,-3.361327466,3.565189436E0,0
16.01246058,-1.038623082,-1.062366579,-3.341099609,3.656543074E0,0
16.02247258,-1.3334663,-1.165763478,-3.231288314,3.684882770E0,0
16.03248458,-1.536800009,-1.158670805,-2.948184258,3.520804272E0,0
16.04249658,-1.599578347,-1.059917765,-2.582274858,3.217175780E0,0
16.05250858,-1.704747391,-0.9072317612,-2.352874555,3.043887614E0,0
16.06252058,-1.725464661,-0.728943724,-2.333450689,2.992253226E0,0
16.07253158,-1.532016255,-0.5348413074,-2.355763664,2.860550904E0,0
16.08254358,-1.337856682,-0.2573184192,-2.333550677,2.702134718E0,0
16.09255558,-1.232847706,0.01897947729,-2.229283127,2.547543316E0,0
16.10256758,-1.132600263,0.294378072,-1.802668519,2.149198826E0,0
16.11257958,-1.104047432,0.5659379697,-1.203582684,1.728530530E0,0
16.12259158,-0.8984385721,0.924540689,-0.7435272646,1.488220463E0,0
16.13260358,-0.5721396728,1.410153703,0.04896458387,1.522588192E0,0
16.14261458,-0.2710902201,1.655851366,0.9446036553,1.925515442E0,0
16.15262658,0.08046908945,1.731466682,1.537633529,2.317060425E0,0
16.16263871,0.2886444385,1.783710092,2.160640324,2.816612134E0,0
16.17265071,0.2465984264,1.782824531,2.955442407,3.460334364E0,0
16.18266271,-0.023144449,1.71852884,3.641975691,4.027140918E0,0
16.19267471,-0.3388230506,1.672983123,4.045661613,4.391019412E0,0
16.20268671,-0.6589858818,1.768317297,4.046971974,4.465332083E0,0
16.21269771,-0.8892901647,1.976153361,3.726538709,4.310813131E0,0
16.22270971,-0.933261738,2.060363499,3.440823287,4.117686257E0,0
16.23272171,-0.8792773926,1.821093096,3.321801458,3.888942494E0,0
16.24273371,-0.5275365271,1.474979152,3.590338345,3.917191305E0,0
16.25274571,0.07255634487,0.9766139451,4.559751152,4.663729172E0,0
16.26275771,0.745328207,0.2887755623,6.038392122,6.091065989E0,0
16.27276971,1.159359022,-0.4293557829,7.347767894,7.451050447E0,0
16.28278071,0.9651672895,-1.040267027,7.519913431,7.652633625E0,0
16.29279271,0.1736314608,-1.465345572,6.101464283,6.277360268E0,0
16.30280471,-0.7652240161,-1.46962281,3.806809285,4.151765400E0,0
16.31281671,-1.432108536,-1.11554759,1.28828545,2.225996560E0,0
16.32282871,-1.825228539,-0.7568366969,-0.8817794162,2.163745813E0,0
16.33284071,-1.810339481,-0.4473125821,-2.082746056,2.795576634E0,0
16.34285271,-1.524403912,-0.285071936,-2.375827215,2.837186679E0,0
16.35286371,-1.149235299,-0.2346171892,-1.933764263,2.261687694E0,0
16.36287571,-0.7606144367,-0.2764604491,-1.119107959,1.381074700E0,0
16.37288771,-0.4677177568,-0.4196195841,-0.4995176929,8.027193911E-1,0
16.38289971,-0.3726139636,-0.5633198789,-0.4078590792,7.889990370E-1,0
16.39291171,-0.4515050358,-0.6744228235,-0.6549811238,1.042930110E0,0
16.40292371,-0.616188941,-0.7476606613,-1.081033815,1.451660905E0,0
16.41293571,-0.7793679191,-0.8844758597,-1.564131356,1.958626764E0,0
16.42294671,-0.8075655319,-0.9729053485,-1.905585946,2.286911608E0,0
16.43295871,-0.8668429962,-0.9582162657,-2.133329734,2.494131301E0,0
16.44297071,-0.9963421583,-0.9612214422,-2.297499669,2.682377506E0,0
16.45298271,-1.130012286,-0.9981699979,-2.415641491,2.847559468E0,0
16.46299471,-1.233028677,-1.056502991,-2.508291208,2.987989805E0,0
16.47300671,-1.289010504,-1.116106291,-2.644274055,3.146335426E0,0
16.48301871,-1.26476561,-1.155212469,-2.709541261,3.205582902E0,0
16.49302971,-1.24170346,-1.076445797,-2.799087276,3.245836196E0,0
16.50304171,-1.229392586,-0.9220445126,-3.056470014,3.421049717E0,0
16.51305371,-1.207382058,-0.7922266772,-3.38372815,3.678995887E0,0
16.52306571,-1.182381118,-0.6685428634,-3.482435582,3.737958300E0,0
16.53307771,-1.333957759,-0.6031689459,-3.43897966,3.737624537E0,0
16.54308971,-1.483184257,-0.5965826422,-3.237247211,3.610473085E0,0
16.55310171,-1.49190728,-0.5932985535,-2.916258461,3.329016959E0,0
16.56311371,-1.43129358,-0.5006260327,-2.576007228,2.989153890E0,0
16.57312471,-1.182193423,-0.3462969616,-2.247082636,2.562593071E0,0
16.58313671,-0.8872537257,-0.1374925983,-1.801238875,2.012606487E0,0
16.59314871,-0.4774659424,-0.000909242034,-1.203852825,1.295081533E0,0
16.60316071,-0.05786492318,0.02843793333,-0.4794354308,4.837513800E-1,0
16.61317271,0.2403148623,0.05800291747,0.2605262017,3.591510452E-1,0
16.62318471,0.3779280594,0.1993324587,0.9224315983,1.016584035E0,0
16.63319671,0.355830262,0.3940836239,1.261555488,1.368736398E0,0
16.64320771,0.1439350605,0.5174315152,1.205884148,1.320079260E0,0
16.65321971,-0.1356584729,0.5305506206,1.088307166,1.218318378E0,0
16.66323171,-0.0703658317,0.5093372145,1.353329292,1.447714033E0,0
16.67324371,0.4026907253,0.6046044374,1.909696539,2.043195345E0,0
16.68325571,1.077980691,0.8623400554,2.669091977,3.004950037E0,0
16.69326771,1.599356007,1.247414582,3.474234277,4.022969871E0,0
16.70327871,1.688669448,1.699944927,3.739042395,4.440929552E0,0
16.71329071,1.474726991,2.039573431,3.298641222,4.149182255E0,0
16.72330271,1.081694111,2.200983188,2.450355826,3.466789988E0,0
16.73331471,0.6987060177,2.239917166,1.374469315,2.719298606E0,0
16.74332671,1.012009188,2.085922263,0.9680527443,2.512441124E0,0
16.75333871,2.230278469,1.600845731,2.264514356,3.558774280E0,0
16.76335071,3.886733707,0.8922395003,4.531374614,6.036236089E0,0
16.77336171,5.20329863,0.3954495335,6.868620147,8.626044266E0,0
16.78337371,5.45126969,0.06807708532,8.063479954,9.733482660E0,0
16.79338571,4.392124343,-0.4748412734,7.026289732,8.299697457E0,0
16.80339771,2.713208927,-1.177010889,4.8012166,5.639019255E0,0
16.81340971,1.185325484,-1.852997258,2.546741914,3.365187917E0,0
16.82342171,-0.03806376591,-2.384363273,0.9080345839,2.551698233E0,0
16.83343371,-0.758463977,-2.713474976,-0.09198254943,2.818984717E0,0
16.84344471,-0.8397326732,-2.683903559,-0.6722760183,2.891443294E0,0
16.85345671,-0.5532959971,-2.411063999,-1.133779208,2.721180141E0,0
16.86346871,-0.128401055,-2.047133881,-1.641701104,2.627246938E0,0
16.87348071,0.4454071207,-1.702165699,-2.228159877,2.839093519E0,0
16.88349271,0.9864453073,-1.3340978,-2.741757081,3.204703289E0,0
16.89350471,1.42531261,-0.9310632581,-3.189049197,3.615028300E0,0
16.90351671,1.595753245,-0.5545101714,-3.609663393,3.985420901E0,0
16.91352771,1.615679971,-0.3048077506,-3.986814065,4.312541701E0,0
16.92353971,1.495226013,-0.1932522315,-4.181957286,4.445426188E0,0
16.93355171,1.216361481,-0.1461084706,-4.259124745,4.431819777E0,0
16.94356371,0.977318096,-0.09633404732,-4.229729038,4.342238898E0,0
16.95357571,0.8167670028,-0.0181772393,-4.013779085,4.096078770E0,0
16.96358771,0.6997783971,0.04799219191,-3.603209821,3.670846506E0,0
16.97359971,0.6730316247,0.03339286387,-3.280064033,3.348567859E0,0
16.98361071,0.603182833,0.05768336713,-3.248700737,3.304725916E0,0
16.99362271,0.3535448778,0.08947117031,-3.343533804,3.363363996E0,0
17.00363471,0.02447586,0.05527782261,-3.340686795,3.341233749E0,0
17.01364671,-0.4751279332,-0.09725732267,-3.358431925,3.393268415E0,0
17.02365871,-0.9270506063,-0.2445533627,-3.366036814,3.499919000E0,0
17.03367071,-1.099458245,-0.2457268989,-3.299580869,3.486606381E0,0
17.04368271,-1.165863611,-0.1500185037,-3.247833011,3.454006771E0,0
17.05369471,-1.177099913,-0.02969508469,-3.301344974,3.505042745E0,0
17.06370571,-1.013575218,0.1250333512,-3.162180072,3.323003291E0,0
17.07371771,-0.6480339007,0.3195555979,-2.578591697,2.677909419E0,0
17.08372971,-0.3603185847,0.4753102201,-1.706021061,1.807278935E0,0
17.09374171,-0.2261515903,0.4676310718,-0.6094611347,8.007910063E-1,0
17.10375371,-0.1513521074,0.442657029,0.456317879,6.535125955E-1,0
17.11376571,-0.2510692075,0.4289646041,1.371492498,1.458779644E0,0
17.12377671,-0.548368987,0.4384078574,2.00885713,2.128007746E0,0
17.13378871,-1.004241747,0.4325565487,2.260004983,2.510623265E0,0
17.14380071,-1.41672802,0.378268075,2.364432746,2.782219839E0,0
17.15381271,-1.567679593,0.4257509744,2.611960588,3.075909834E0,0
17.16382462,-1.384507961,0.6301608628,3.050899372,3.409098413E0,0
17.17383662,-1.077628981,0.8709468645,3.47903718,3.744800710E0,0
17.18384862,-0.7568128695,1.220345482,3.867797499,4.125756452E0,0
17.19385962,-0.6729409929,1.645421687,3.830578217,4.222983730E0,0
17.20387162,-0.8784991282,1.989097635,3.027742644,3.727666245E0,0
17.21388362,-0.9738338864,2.231602718,2.174820406,3.264697065E0,0
17.22389562,-0.8944879009,2.517039227,1.560376859,3.093601626E0,0
17.23390762,-0.4472517711,2.542613779,1.358010573,2.917038171E0,0
17.24391962,0.5183748172,2.27020779,2.296580486,3.270602053E0,0
17.25393162,1.730245491,1.778528874,4.163937922,4.847194387E0,0
17.26394262,2.561452923,1.313416198,6.175202351,6.813165730E0,0
17.27395462,2.658700891,0.888220709,7.535990936,8.040446868E0,0
17.28396662,1.831416793,0.3247274601,7.184515387,7.421374317E0,0
17.29397862,0.4317361844,-0.4151002711,5.011516389,5.047177516E0,0
17.30399062,-0.9365656342,-0.9412578785,2.210351597,2.578522011E0,0
17.31400262,-1.973796494,-1.243871754,-0.1552225256,2.338200927E0,0
17.32401462,-2.384821987,-1.303164275,-1.626250421,3.167065435E0,0
17.33402562,-2.275178069,-1.197037895,-2.246988496,3.414424149E0,0
17.34403762,-1.732424309,-1.039557175,-2.013197519,2.852181158E0,0
17.35404962,-0.9072238675,-0.8504354167,-1.157608366,1.698926918E0,0
17.36406162,-0.2592222726,-0.7237958354,-0.3684201944,8.525315464E-1,0
17.37407362,0.09836829364,-0.6794604921,-0.1361641109,6.999168141E-1,0
17.38408562,0.1973669171,-0.629314186,-0.1100580472,6.686574746E-1,0
17.39409762,0.002705799043,-0.7128960407,-0.225186215,7.476208381E-1,0
17.40410862,-0.4339379534,-0.9744191927,-0.7539528501,1.306231147E0,0
17.41412062,-0.8395987719,-1.220798641,-1.385824023,2.028739422E0,0
17.42413262,-1.121624893,-1.355992699,-1.882726842,2.577095062E0,0
17.43414462,-1.331964735,-1.424751862,-2.199299775,2.939552249E0,0
17.44415662,-1.403608622,-1.431479668,-2.400075619,3.127237468E0,0
17.45416862,-1.352921156,-1.378601543,-2.367941076,3.055827679E0,0
17.46418062,-1.385304791,-1.367027564,-2.244535004,2.970819939E0,0
17.47419162,-1.331191149,-1.363242077,-2.202188299,2.912066644E0,0
17.48420362,-1.341453889,-1.294171842,-2.329132521,2.983158995E0,0
17.49421562,-1.394953281,-1.248012167,-2.518438466,3.137827486E0,0
17.50422762,-1.501803838,-1.212418996,-2.765886785,3.372759152E0,0
17.51423962,-1.569393558,-1.134964439,-3.056592221,3.618548939E0,0
17.52425163,-1.595757192,-1.017143628,-3.323836874,3.824776299E0,0
17.53426362,-1.494572587,-0.8346993899,-3.455105696,3.855933824E0,0
17.54427462,-1.390579272,-0.6862572956,-3.384876543,3.723177272E0,0
17.55428662,-1.241419432,-0.5894490391,-3.06927834,3.362891896E0,0
17.56429862,-0.9247810096,-0.454028694,-2.658904958,2.851514957E0,0
17.57431062,-0.6176519144,-0.3105485469,-2.256291416,2.359827376E0,0
17.58432262,-0.2869740352,-0.210051282,-1.754606745,1.790285024E0,0
17.59433462,0.05086054355,-0.1103889996,-1.170555856,1.176848987E0,0
17.60434562,0.1220460087,0.01202538371,-0.7297097093,7.399433072E-1,0
17.61435762,0.05013022631,0.04650641441,-0.482498787,4.873201880E-1,0
17.62436962,0.03078851402,0.02275385499,-0.2976753169,3.001270811E-1,0
17.63438162,0.1787321332,0.1454243463,-0.05697877765,2.373604791E-1,0
17.64439362,0.5067565459,0.4061411673,0.2123188323,6.832511479E-1,0
17.65440562,1.010816648,0.6606155008,0.7026692605,1.397106734E0,0
17.66441762,1.598986609,0.8657176995,1.393703731,2.290990048E0,0
17.67442862,2.064628458,1.063550055,1.863083121,2.977399554E0,0
17.68444062,2.348937917,1.324969127,2.088692089,3.411112307E0,0
17.69445263,2.320264341,1.665225037,2.275287266,3.651511082E0,0
17.70446462,2.069743602,1.978614162,2.178974853,3.598150079E0,0
17.71447662,1.827196419,2.043932238,1.827665951,3.294945914E0,0
17.72448862,1.848898652,1.941346348,1.604176013,3.124201106E0,0
17.73450062,2.131282331,1.807584273,1.855905663,3.354714758E0,0
17.74451162,2.657303991,1.660287064,2.830236563,4.222328343E0,0
17.75452362,3.101693257,1.327036702,4.091164645,5.302749817E0,0
17.76453562,3.33912822,0.8138464648,5.270133474,6.291774803E0,0
17.77454762,3.173765745,0.2016885942,5.855197687,6.663092919E0,0
17.78455962,2.45657317,-0.4049617839,5.508046739,6.044611209E0,0
17.79457162,1.492143361,-0.9201207787,4.40904677,4.744766325E0,0
17.80458362,0.5893373573,-1.278341675,2.964084592,3.281352378E0,0
17.81459463,-0.2607758778,-1.532326596,1.69847289,2.302355102E0,0
17.82460662,-0.7830228674,-1.669788204,0.7883140129,2.005681042E0,0
17.83461862,-0.9323660177,-1.727648742,0.2347493362,1.977165602E0,0
17.84463062,-0.8337129647,-1.59658048,-0.1113491124,1.804590026E0,0
17.85464262,-0.4230191553,-1.328566918,-0.3916593683,1.448251471E0,0
17.86465462,0.1092104933,-0.9953808761,-0.6296042079,1.182840428E0,0
17.87466562,0.4414986956,-0.6527977735,-0.9463163048,1.231495262E0,0
17.88467762,0.4854253185,-0.4278887165,-1.411037217,1.552337760E0,0
17.89468962,0.3986888909,-0.3470989072,-1.954737641,2.024951784E0,0
17.90470162,0.1761564347,-0.2910808271,-2.349990124,2.374492097E0,0
17.91471362,-0.06005792141,-0.2070282716,-2.558455056,2.567520191E0,0
17.92472562,-0.2297958675,-0.1803895265,-2.766794858,2.782175463E0,0
17.93473762,-0.3826920784,-0.239930554,-2.74238858,2.779337155E0,0
17.94474862,-0.378381511,-0.3403295857,-2.427758092,2.480525377E0,0
17.95476062,-0.382418721,-0.3511709082,-2.167459347,2.228776594E0,0
17.96477262,-0.4504984376,-0.409237268,-2.02062816,2.110299065E0,0
17.97478462,-0.5481557098,-0.5359347367,-1.991640004,2.134087775E0,0
17.98479662,-0.6276915836,-0.6255515027,-2.142557809,2.318591248E0,0
17.99480862,-0.7345421407,-0.6282511622,-2.261140512,2.459066509E0,0
18.00482062,-0.9564021671,-0.6656435215,-2.276914546,2.557758052E0,0
18.01483162,-1.175494706,-0.7088567841,-2.399190935,2.764124253E0,0
18.02484362,-1.36287224,-0.7063945216,-2.605317566,3.023920234E0,0
18.03485562,-1.465649919,-0.6823484319,-2.746686868,3.187164542E0,0
18.04486762,-1.566619054,-0.6346205342,-3.018552575,3.459580630E0,0
18.05487962,-1.476833889,-0.6396158105,-3.255781131,3.631839409E0,0
18.06489162,-1.384840814,-0.5374696308,-3.132495512,3.466869744E0,0
18.07490262,-1.114353881,-0.4126882946,-2.778058934,3.021540607E0,0
18.08491462,-0.7776714957,-0.2254165953,-2.24093195,2.382721470E0,0
18.09492662,-0.4242792302,-0.01168799937,-1.611355809,1.666318402E0,0
18.10493862,-0.161972259,0.2039976597,-0.7926538163,8.343561173E-1,0
