Time (s),Linear Acceleration x (m/s^2),Linear Acceleration y (m/s^2),Linear Acceleration z (m/s^2),Absolute acceleration (m/s^2),label
0.005337499984,-0.2108981051,0.2278431898,-1.214377813,1.253436877E0,1
0.0153495,-0.4315287544,0.1565779102,-1.045814865,1.142130658E0,1
0.02536149998,-0.9115758039,0.3085318422,-0.3169524175,1.013223163E0,1
0.0353735,-1.185676171,0.4657538232,0.2389873981,1.296097829E0,1
0.04538649999,-1.287138811,0.3251750645,0.3323066211,1.368536748E0,1
0.0553985,-1.278075626,0.1765733412,0.01914612293,1.290357325E0,1
0.06541049998,-1.122435464,0.2673998961,-0.4425728291,1.235813410E0,1
0.0754225,-0.9855271482,0.3472263765,-0.9572307175,1.417081707E0,1
0.08543549999,-0.7551807654,0.2429722756,-1.145880606,1.393691457E0,1
0.0954475,-0.531194399,0.2253169003,-1.179840065,1.313376478E0,1
0.1054595,-0.214781241,0.1290992126,-1.74011793,1.758069395E0,1
0.1154715,0.2715479109,0.1525687668,-2.377514137,2.397830054E0,1
0.1254845,1.420665827,0.523163833,-2.727356558,3.119369421E0,1
0.1354965,2.603755774,0.3210059997,-2.17492741,3.407770272E0,1
0.1455085,1.548769259,-0.836968402,-2.071077352,2.718191259E0,1
0.1555205,1.336710774,-0.7781357646,-2.534897209,2.969510872E0,1
0.1655325,1.403512874,-0.6347072192,-2.471174837,2.911942087E0,1
0.1755455,0.8786704516,-1.025534675,-1.984609312,2.400511873E0,1
0.1855575,1.230790217,-0.8163780168,-2.065542378,2.539248499E0,1
0.1955695,1.550572687,-0.7880228215,-2.609739815,3.136239392E0,1
0.2055815,1.515667879,-1.17889457,-2.966257417,3.533514482E0,1
0.2155945,1.75982904,-1.275229202,-3.455129669,4.081804601E0,1
0.2256065,0.9879797629,-1.807957326,-3.757421948,4.285211010E0,1
0.2356185,-0.09036287069,-1.619242095,-3.213843731,3.599847488E0,1
0.2456305,0.3678297718,-0.5051858376,-2.530385497,2.606407918E0,1
0.2556425,1.004408392,-0.1011572693,-1.894317777,2.146510855E0,1
0.2656555,0.5263477881,-0.3693509249,-0.7049806648,9.541801914E-1,1
0.2756675,-0.1989278314,-0.458312218,-0.4002822572,6.401939212E-1,1
0.2856795,-1.32274163,-0.2721061738,0.8999531472,1.622837902E0,1
0.2956915,-2.101830637,0.8907756498,0.9886934155,2.487707369E0,1
0.3057045,-1.661599033,1.599148577,-0.03276721179,2.306352360E0,1
0.3157165,-0.8966307592,1.927551597,1.730788697,2.741355758E0,1
0.3257285,1.439890742,3.328039268,4.463819393,5.751070708E0,1
0.3357405,4.396878129,6.743676842,3.202915869,8.664201331E0,1
0.3457525,0.4042883674,1.647330219,12.15967788,1.227741472E1,1
0.3557655,-1.187588941,-0.7229417033,7.397102022,7.526628098E0,1
0.3657775,3.345011981,2.043548076,8.135650967,9.030725915E0,1
0.3757895,5.133571168,3.097390584,9.118670245,1.091318141E1,1
0.3858015,4.239030204,2.514101879,9.930638584,1.108637308E1,1
0.3958145,3.849840699,2.284196084,11.24507512,1.210332763E1,1
0.4058265,2.237399793,0.9011427632,12.03244715,1.227182955E1,1
0.4158385,0.5377571311,-0.6141181496,11.22862339,1.125825507E1,1
0.4258505,-1.561833401,-2.12119296,10.14835264,1.048464804E1,1
0.4358635,-4.065798839,-3.745858786,7.437289351,9.266900837E0,1
0.4458755,-5.065241191,-4.269196574,6.729006178,9.442575489E0,1
0.4558875,-5.254230802,-4.009504478,6.061293327,8.967850594E0,1
0.4658996667,-4.382714126,-3.277114989,4.80721175,7.284020221E0,1
0.4759116667,-2.72169236,-1.830578741,3.62799149,4.890904833E0,1
0.4859246667,-0.9125209332,-0.1117935008,2.814112866,2.960476898E0,1
0.4959366666,0.0126725243,1.336910603,2.340396597,2.695356522E0,1
0.5059486667,0.3943947688,2.474499564,2.256413623,3.371957557E0,1
0.5159606666,0.986012321,2.483695773,2.89561779,3.940249659E0,1
0.5259736667,1.870136032,1.6988208,2.90385944,3.849129841E0,1
0.5359856666,4.082801372,-0.3949262077,5.537864615,6.891529457E0,1
0.5459976667,1.495664262,-2.472336679,0.3240205318,2.907653615E0,1
0.5560096666,1.494305515,-3.452875568,-2.318927375,4.419584011E0,1
0.5660216667,-0.5810074139,-3.09781743,-5.335152174,6.196603196E0,1
0.5760346667,-2.17726922,-0.2117507753,-6.259410442,6.630652964E0,1
0.5860466667,-2.536104074,2.888294737,-4.865286296,6.200409753E0,1
0.5960586666,-2.319497186,2.757618822,-2.568409941,4.425071569E0,1
0.6060706667,-0.890394119,0.6675719333,-2.510289786,2.745907643E0,1
0.6160836667,-0.6206451041,-1.569020798,-3.859242437,4.211980390E0,1
0.6260956667,-1.958262928,-3.076728278,-4.603811091,5.873340374E0,1
0.6361076667,-3.354978852,-3.803988881,-5.995879356,7.853456803E0,1
0.6461196667,-4.462129255,-4.159213079,-6.841057541,9.165681601E0,1
0.6561316666,-5.724428802,-3.913300823,-8.086378235,1.065234816E1,1
0.6661446667,-5.271859573,-3.578742147,-8.092826545,1.030018156E1,1
0.6761566667,-4.591295126,-3.709867128,-8.744618597,1.055042461E1,1
0.6861686667,-4.142193588,-3.910987665,-9.938966188,1.145585619E1,1
0.6961806667,-4.159215125,-3.964318072,-10.71438183,1.215783148E1,1
0.7061936666,-4.52640068,-3.78040706,-10.46204641,1.200975419E1,1
0.7162056667,-4.633374321,-3.331451995,-9.651538117,1.121244478E1,1
0.7262176667,-4.185006609,-2.859144613,-8.939282931,1.027617475E1,1
0.7362296667,-3.335730987,-2.472374978,-8.389460472,9.360704368E0,1
0.7462426666,-2.899635119,-2.343068482,-7.795158244,8.640737572E0,1
0.7562546667,-2.768654565,-2.492624471,-6.910893762,7.851055817E0,1
0.7662666666,-2.443089783,-2.237984076,-5.724719993,6.614354044E0,1
0.7762786667,-2.094396048,-1.466427307,-3.955710386,4.710047612E0,1
0.7862906666,-1.614752164,-0.3916687238,-2.168242289,2.731685114E0,1
0.7963036667,-1.071430055,0.6143704569,-0.726390245,1.432848983E0,1
0.8063156666,-0.5780767894,1.552357403,0.3103438944,1.685318846E0,1
0.8163276667,-0.05533249408,2.407322073,1.187388235,2.684800192E0,1
0.8263396666,0.6660329461,3.003181415,2.865740272,4.204184320E0,1
0.8363526667,2.292571928,3.276876131,5.582734394,6.867366783E0,1
0.8463646666,4.422138393,3.308670366,8.944079987,1.051185875E1,1
0.8563766667,6.42625197,3.432440134,11.79836673,1.386649982E1,1
0.8663886666,7.71018943,3.860784933,12.00109905,1.477765407E1,1
0.8764006667,8.028776729,4.174150668,11.48894377,1.462465790E1,1
0.8864136667,7.578474466,3.836538869,9.979635912,1.310516839E1,1
0.8964256667,6.49106894,3.152239221,7.540381025,1.043685461E1,1
0.9064376667,5.287293298,2.646437525,5.673611235,8.194447293E0,1
0.9164496667,3.884796524,1.82417107,3.928891547,5.818542164E0,1
0.9264626667,2.508884116,1.189540595,2.21623565,3.552633782E0,1
0.9364746667,1.192978758,0.8130980211,0.6335464007,1.576612746E0,1
0.9464866667,0.03364253998,0.4039671725,-0.7618489301,8.629803528E-1,1
0.9564986667,-0.8127597597,-0.005953634977,-1.980219807,2.140533662E0,1
0.9665106667,-1.106599303,0.01728349239,-2.998956217,3.196654364E0,1
0.9765236666,-0.9061707839,0.1071627983,-3.698969672,3.809856426E0,1
0.9865356667,-0.8078399125,0.2364038059,-3.932263051,4.021341168E0,1
0.9965476667,-0.6234818807,0.429470973,-3.53823673,3.618327532E0,1
1.006559667,0.01038874805,0.4679517916,-3.089421414,3.124677820E0,1
1.016572667,0.5877179709,0.4067422611,-2.807189178,2.896750379E0,1
1.026584667,0.6973301679,0.2394180456,-2.513690527,2.619585927E0,1
1.036596667,0.3726494855,0.076221672,-2.271909914,2.303530343E0,1
1.046608667,-0.3600273934,-0.3050702906,-2.363678455,2.410324345E0,1
1.056620667,-1.093421433,-0.8072934902,-2.809411705,3.120911299E0,1
1.066633667,-1.603899147,-1.137832498,-3.083089464,3.656856014E0,1
1.076645667,-1.916180224,-1.232751811,-2.846968371,3.646457539E0,1
1.086657667,-2.003574463,-1.387402187,-2.531171363,3.513690927E0,1
1.096669667,-2.117110727,-1.680079596,-2.450761038,3.648431847E0,1
1.106682667,-2.158839966,-1.78987832,-2.498814626,3.756105554E0,1
1.116694667,-2.195951367,-1.710759937,-2.558448624,3.780814903E0,1
1.126706667,-2.236125831,-1.673491831,-2.504505721,3.751450726E0,1
1.136718667,-2.118018507,-1.70602837,-2.392624512,3.622317939E0,1
1.146730667,-1.895820219,-1.65866797,-2.019924155,3.228839936E0,1
1.156743667,-1.552234904,-1.619403917,-1.481207898,2.688099529E0,1
1.166755667,-1.391150252,-1.743402895,-0.8746949297,2.395797132E0,1
1.176767667,-1.390212944,-1.749297766,-0.2877116615,2.252889856E0,1
1.186779667,-1.325367322,-1.388744123,0.2851581824,1.940753453E0,1
1.196792667,-1.12936953,-1.025277105,0.970598622,1.807963043E0,1
1.206804667,-0.7746797678,-0.876068733,1.527416105,1.923700893E0,1
1.216816667,-0.448883729,-0.8814847165,1.854579515,2.101898448E0,1
1.226828667,-0.3572017264,-0.9509446684,1.838838226,2.100765302E0,1
1.236841667,-0.3040669084,-0.8736444774,1.79104367,2.015824592E0,1
1.246853667,-0.1429641303,-0.7469057858,1.871341143,2.019956601E0,1
1.256865667,0.01712971061,-0.7319319436,2.007346795,2.136693462E0,1
1.266877667,0.2844094464,-0.7629037678,2.190790907,2.337193977E0,1
1.276889667,0.7113482827,-0.7525731996,2.584944112,2.784657764E0,1
1.286902667,0.8397434905,-0.7533523411,2.468653518,2.714214264E0,1
1.296914667,0.653850857,-0.6615352678,1.657214352,1.900397133E0,1
1.306926667,0.2373969555,-0.5582073659,0.6763345706,9.085049418E-1,1
1.316938667,-0.3383494261,-0.5867879713,-0.1964056349,7.052486305E-1,1
1.326950667,-0.7879155251,-0.5810571152,-0.7307797498,1.221669877E0,1
1.336963667,-1.036153803,-0.5254723138,-0.7802121109,1.399452319E0,1
1.346975667,-0.9849058816,-0.3977328712,-0.4461495709,1.152076591E0,1
1.356987667,-0.5420623264,-0.2021902853,0.1855894554,6.075820299E-1,1
1.366999667,0.04604828507,-0.0474443078,0.8922710752,8.947173177E-1,1
1.377012667,0.5695220205,0.1808467788,1.588250536,1.696938613E0,1
1.387024667,0.899499988,0.4109744757,1.989847832,2.222047399E0,1
1.397036667,0.9160250965,0.445078361,1.91171149,2.166064991E0,1
1.407048667,0.5874472448,0.3033687508,1.607668555,1.738310975E0,1
1.417061667,0.2907375956,0.2657039112,1.50406408,1.554778336E0,1
1.427073667,0.1885592562,0.413071872,1.342039488,1.416775547E0,1
1.437085667,0.274287039,0.6843347311,1.261508126,1.461146863E0,1
1.447097667,0.4014598864,1.012661737,1.173648448,1.601282147E0,1
1.457109667,0.5368691218,1.441584241,1.01874518,1.845056997E0,1
1.467122,0.805438461,2.000016725,1.24687313,2.490680754E0,1
1.477134,1.083807149,2.280124667,1.964476179,3.198870596E0,1
1.487146,1.378982489,2.355638534,3.119455637,4.145072867E0,1
1.497158,2.226905942,2.554792945,4.560163381,5.681651795E0,1
1.507171,3.502142453,3.279086963,5.853290325,7.568250835E0,1
1.517183,4.829225932,4.315202467,7.442419113,9.865698033E0,1
1.527195,6.009980502,5.260218351,8.728634648,1.183126475E1,1
1.537207,6.405120717,5.69406655,8.894527758,1.235154198E1,1
1.547219,5.707346746,5.669388961,8.155557228,1.145551796E1,1
1.557232,4.398762102,5.452340316,6.629067323,9.644773534E0,1
1.567244,3.178390016,5.388656536,5.497151037,8.328172181E0,1
1.577256,2.652147624,5.408789084,5.213607271,7.966842985E0,1
1.587268,2.416386719,5.161283462,5.232492608,7.736714461E0,1
1.597281,2.166234063,4.724454938,5.411262456,7.502986461E0,1
1.607293,2.120901184,4.51493049,5.036443069,7.088623135E0,1
1.617305,2.44139029,4.017478033,4.457247707,6.478238450E0,1
1.627317,2.794261569,3.220678541,4.02036305,5.860374308E0,1
1.637329,2.402617111,2.312919361,3.374448034,4.744371874E0,1
1.647342,1.60274403,1.730170646,2.203828443,3.227869065E0,1
1.657354,0.5184863529,1.327596865,0.607459048,1.549305661E0,1
1.667366,-0.7545118439,0.5563011736,-0.9365596408,1.325104931E0,1
1.677378,-1.845481832,-0.2127252138,-2.208250108,2.885727594E0,1
1.68739,-2.571154916,-1.005773132,-2.98157186,4.063519158E0,1
1.697403,-2.826130356,-1.907258835,-3.399290514,4.814543078E0,1
1.707415,-2.742910444,-3.120642037,-3.79392553,5.626351869E0,1
1.717427,-1.951584823,-3.878403763,-4.286026615,6.100878889E0,1
1.727439,-2.018094562,-4.723541018,-5.236974499,7.335560463E0,1
1.737452,-3.264494067,-7.12354647,-6.183795419,9.982041955E0,1
1.747464,-3.094873065,-7.771240209,-7.254255713,1.107224637E1,1
1.757476,-2.755511486,-6.957560974,-8.6401768,1.143036104E1,1
1.767488,-2.968819667,-6.208905702,-9.588057235,1.180234052E1,1
1.7775,-2.043503053,-5.496067548,-9.927164168,1.152958159E1,1
1.787513,-0.3560043629,-5.457257239,-10.3643137,1.171867715E1,1
1.797525,-0.6283520266,-6.112691522,-11.60001982,1.312708207E1,1
1.807537,-1.999177503,-6.35719226,-12.37236217,1.405296943E1,1
1.817549,-3.527394823,-6.945161954,-12.72851256,1.492289586E1,1
1.827562,-4.140165482,-7.016789761,-12.5855727,1.499242972E1,1
1.837574,-3.840874871,-6.63490986,-12.28360026,1.447968177E1,1
1.847586,-3.0665588,-6.160798904,-11.28539518,1.321814550E1,1
1.857598,-1.786569234,-5.735934952,-9.505768785,1.124510647E1,1
1.86761,-0.389954174,-5.09606128,-7.213099501,8.840288979E0,1
1.877623,0.9527298233,-4.093360274,-5.262433861,6.734723646E0,1
1.887635,2.035303356,-3.055927393,-3.461455187,5.046070153E0,1
1.897647,2.630916091,-2.109390063,-1.319231254,3.620996689E0,1
1.907659,2.649466968,-0.9869702411,0.6305076027,2.896778436E0,1
1.917672,2.493300994,0.3299420071,2.045665938,3.241937800E0,1
1.927684,2.173346908,1.464704717,2.24415669,3.450367508E0,1
1.937696,1.25496743,2.266936857,2.212944837,3.407502138E0,1
1.947708,-0.03973117255,3.225132365,2.615116915,4.152335947E0,1
1.95772,-1.247380668,4.106292561,3.145807868,5.321062326E0,1
1.967733,-1.951000393,4.940924708,3.41155154,6.313305269E0,1
1.977745,-1.818853466,5.518225572,3.402865502,6.733389564E0,1
1.987757,-0.9421473862,5.155528048,3.219082836,6.150577652E0,1
1.997769,0.4538727196,4.198206114,3.431843718,5.441368056E0,1
2.007781,2.010876174,3.073127855,4.523088525,5.826325395E0,1
2.017794,3.007175063,1.702413037,6.647156854,7.491729189E0,1
2.027806,3.28732569,0.08545939565,9.590474474,1.013859034E1,1
2.037818,3.141171026,-1.23944775,11.89995977,1.236981118E1,1
2.04783,2.251305203,-1.858013877,11.43269356,1.179945222E1,1
2.057843,0.1232506813,-1.58324035,8.367505932,8.516865401E0,1
2.067855,-1.899554982,-0.3467878354,5.208432485,5.554848323E0,1
2.077867,-2.848292473,1.011499311,2.813329339,4.129252092E0,1
2.087879,-3.010886875,2.18635287,1.484885212,4.006302877E0,1
2.097891,-2.564922954,2.924132321,1.257241997,4.087791217E0,1
2.107904,-1.378470273,2.783481934,1.640512365,3.512724412E0,1
2.117916,0.009000582509,2.258507219,2.413342951,3.305322990E0,1
2.127928,1.153719237,1.83637684,3.211102556,3.874858398E0,1
2.13794,1.90725635,1.474889105,3.371071851,4.144520489E0,1
2.147952,2.124413607,1.048778234,2.935084156,3.771974014E0,1
2.157965,1.886879826,0.7254269162,2.218958699,3.001722405E0,1
2.167977,1.421109046,0.411015991,1.164384704,1.882624977E0,1
2.177989,1.00077866,0.1604092982,0.06258567274,1.015483154E0,1
2.188001,0.6747844007,-0.1240364009,-1.085242056,1.283927309E0,1
2.198014,0.3577072182,-0.2771124136,-2.015579674,2.065746153E0,1
2.208026,0.1685350277,-0.2509212729,-2.400008376,2.418967909E0,1
2.218038,-0.03746352182,-0.2967388853,-2.546208063,2.563714684E0,1
2.22805,-0.2820526348,-0.5342703268,-2.581609445,2.651359236E0,1
2.238062,-0.4873064043,-0.8105191067,-2.590659181,2.757883925E0,1
2.248075,-0.7984019217,-1.03783517,-2.579490999,2.892805089E0,1
2.258087,-1.00863074,-1.144744199,-2.269720716,2.734850523E0,1
2.268099,-0.7723627355,-1.197606245,-1.743567202,2.251850683E0,1
2.278111,-0.2663752446,-1.193260302,-1.558740808,1.981034787E0,1
2.288123,0.1669796683,-1.054422844,-1.953066507,2.225793909E0,1
2.298136,0.3451173955,-0.6615571949,-2.532913833,2.640533360E0,1
2.308148,0.319106349,-0.1594562021,-2.714556418,2.737895485E0,1
2.31816,0.2029419997,0.09547567606,-2.383267213,2.393796914E0,1
2.328172,0.2939105323,0.05542429537,-1.851016222,1.875024348E0,1
2.338185,0.4036910012,-0.1975990516,-1.341143695,1.414453329E0,1
2.348197,0.5069234474,-0.4779312345,-1.066832097,1.274174388E0,1
2.358209,0.4442643555,-0.5592373529,-1.133797334,1.340005086E0,1
2.368221,0.1860497957,-0.4889506048,-1.150349048,1.263720757E0,1
2.378233,0.008174750092,-0.3712370905,-1.239406235,1.293836010E0,1
2.388246,-0.1374083253,-0.1094306409,-1.315228835,1.326907307E0,1
2.398258,-0.2252506806,0.1803272536,-0.8943193549,9.397142630E-1,1
2.40827,-0.08361456256,0.1423712227,-0.2106243092,2.676257830E-1,1
2.418282,0.2052731932,-0.1432184842,0.4055073291,4.765341667E-1,1
2.428294,0.4734428753,-0.4208837521,0.89646119,1.097694836E0,1
2.438307,0.6032720396,-0.4637657699,1.060741637,1.305445772E0,1
2.448319,0.4533695666,-0.4147482687,0.9834449548,1.159622382E0,1
2.458331,0.1250987669,-0.4589587739,0.8457190526,9.703265293E-1,1
2.468343625,-0.1466344093,-0.6217332709,0.6641407871,9.214862426E-1,1
2.478355625,-0.3789242788,-0.7578275076,0.4386066628,9.540764879E-1,1
2.488368625,-0.5512088335,-0.7323967972,-0.03679945171,9.173823883E-1,1
2.498380625,-0.6096542755,-0.4388499069,-0.3878335351,8.453889208E-1,1
2.508392625,-0.462290225,0.204980869,-0.2935775882,5.847368717E-1,1
2.518404625,-0.01117602082,0.8984726322,-0.3039903098,9.485716012E-1,1
2.528416625,0.1201766356,0.6221668419,-0.9173778498,1.114951175E0,1
2.538429625,0.1481659961,1.093827522,-0.8575953323,1.397813137E0,1
2.548441625,-0.2726596127,0.5630845284,-0.1794153804,6.508435521E-1,1
2.558453625,-0.3929830317,0.4637613845,-0.4923601162,7.822587609E-1,1
2.568465625,-0.2435662614,0.8255218926,-0.8600131559,1.216730680E0,1
2.578478625,-0.4392254809,0.8158687243,-0.8434778148,1.253002643E0,1
2.588490625,-0.6753581587,1.036854884,-1.018865633,1.602892346E0,1
2.598502625,-0.6192308088,1.143774731,-1.076975262,1.688651280E0,1
2.608514625,-0.6265670179,0.9646201363,-0.9696958119,1.504456115E0,1
2.618526625,-0.7159524534,0.8716315734,-0.7308265275,1.344037547E0,1
2.628539625,-0.6779818775,1.152744652,-0.1296900737,1.343614221E0,1
2.638551625,-0.4036225522,1.363822998,-0.5143702054,1.512448691E0,1
2.648563625,-0.7069462064,1.58967141,-0.629431715,1.850138485E0,1
2.658575625,-0.02511715338,1.055590825,-0.9561478132,1.424472359E0,1
2.668587625,-0.0817915469,0.4847631213,-1.123410341,1.226269112E0,1
2.678600625,-0.3859994828,0.2061166906,-1.153832234,1.234021278E0,1
2.688612625,-0.7372102252,0.1888179955,-1.522936553,1.702488442E0,1
2.698624625,-0.6200165284,0.008331405222,-1.859194722,1.959871150E0,1
2.708636625,-0.1374871165,-0.4376820718,-2.503645011,2.545330360E0,1
2.718648625,0.3246626291,-0.403832248,-2.990725676,3.035280280E0,1
2.728661625,0.3840431506,0.1635198708,-3.138831555,3.166463551E0,1
2.738673625,0.209785051,0.7533388925,-2.959881613,3.061442212E0,1
2.748685625,0.3578785051,1.011766675,-2.889650121,3.082503309E0,1
2.758697625,0.6223077598,0.8753106415,-2.996076463,3.182751929E0,1
2.768709625,0.6344003865,0.5720610277,-3.126496854,3.241095532E0,1
2.778722625,0.3598978776,0.4458510706,-3.194032195,3.245019464E0,1
2.788734625,0.2989913973,0.3832781155,-2.71439562,2.757578929E0,1
2.798746625,0.421347619,0.3008377835,-1.970918056,2.037781925E0,1
2.808758625,0.5989318707,0.1997524349,-1.393994338,1.530307366E0,1
2.818770625,0.5988614483,0.3839477679,-1.38909788,1.560654940E0,1
2.828783625,0.4699645859,0.7787359813,-1.518865137,1.770380678E0,1
2.838795625,0.4048543413,1.067884742,-1.438844821,1.836997354E0,1
2.848807625,0.410935811,1.110292405,-0.8989456719,1.486512962E0,1
2.858819625,0.5250733875,1.077512183,-0.2671674693,1.228052533E0,1
2.868832625,0.6285974635,1.133216998,0.320128625,1.334840018E0,1
2.878844625,0.5531757272,1.325033446,0.7623693323,1.625707236E0,1
2.888856625,0.4495452683,1.5349729,1.361272734,2.100308599E0,1
2.898868625,0.4773446857,1.657275894,2.642295942,3.155336620E0,1
2.908880625,0.5026514351,1.862410691,4.486456304,4.883597261E0,1
2.918893625,0.4993859844,1.945526522,6.677301005,6.972862290E0,1
2.928905625,0.7163983767,1.81776106,8.3120065,8.538555730E0,1
2.938917625,0.7485346008,1.463155058,9.217177702,9.362557961E0,1
2.948929625,0.555249698,1.160941425,9.533376998,9.619842213E0,1
2.958941625,0.1779833972,0.9542553619,9.976526363,1.002364004E1,1
2.968954625,0.4736535577,1.205532292,11.39746526,1.147082691E1,1
2.978966625,0.5730803436,1.336811346,11.97901763,1.206699420E1,1
2.988978625,-0.0800691399,1.736873456,12.45691524,1.257767378E1,1
2.998990625,-0.5553275391,2.037285416,11.80951503,1.199681482E1,1
3.009002625,-0.5801836143,1.815896383,9.984948692,1.016529848E1,1
3.019015625,-0.2499692,1.186154327,6.958216447,7.063017968E0,1
3.029027625,0.1247613826,1.168730501,5.315275149,5.443679481E0,1
3.039039625,0.5206198557,1.406255072,5.502622862,5.703284731E0,1
3.049051625,1.253317346,1.184371364,5.625058295,5.883436132E0,1
3.059063625,2.128992269,0.3321576633,5.069339504,5.508279205E0,1
3.069076625,2.903886337,-0.8095665953,3.862870635,4.899971783E0,1
3.079088625,3.456348814,-1.934585943,2.800101768,4.850725699E0,1
3.089100625,3.491915672,-2.910998306,2.218642949,5.058632496E0,1
3.099112625,3.207596565,-3.413229984,1.465483566,4.907795506E0,1
3.109124625,2.450370736,-2.867390064,0.8532093358,3.867067195E0,1
3.119137625,1.229660096,-1.805558359,0.2474120665,2.198480764E0,1
3.129149625,0.08438438505,-1.117345608,-0.8284960788,1.393552183E0,1
3.139161625,-0.8084089927,-0.9518653125,-1.92300831,2.292931232E0,1
3.149173625,-1.525524677,-1.234137748,-3.097008761,3.666303968E0,1
3.159185625,-2.083325369,-1.634284496,-4.653417115,5.354009829E0,1
3.169198625,-2.524822456,-2.167164355,-6.42996846,7.239877359E0,1
3.179210625,-2.83804552,-2.842932622,-8.031619645,8.980182760E0,1
3.189222625,-2.934099485,-3.262731131,-9.458337341,1.042662455E1,1
3.199234625,-2.883033997,-3.557439571,-10.41469799,1.137687108E1,1
3.209246625,-2.985482478,-3.890994573,-11.04480565,1.208472905E1,1
3.219259625,-2.929682791,-4.045558117,-11.54914437,1.258301702E1,1
3.229271625,-2.873474384,-4.035107681,-11.92880174,1.291647243E1,1
3.239283625,-2.878735124,-4.049324601,-11.97859897,1.296807537E1,1
3.249295625,-2.778871112,-4.136753631,-11.96387568,1.296029230E1,1
3.259307625,-2.611147825,-4.091572196,-11.83557958,1.279218512E1,1
3.269320625,-2.394019804,-3.872205422,-11.48155757,1.235117282E1,1
3.279332625,-2.176290104,-3.772955368,-10.86088031,1.170171577E1,1
3.289344625,-1.741720651,-3.549807493,-9.890112702,1.065124656E1,1
3.299356625,-1.10758032,-3.111278598,-8.412525984,9.037553989E0,1
3.309368625,-0.6343085852,-2.359279303,-6.904640164,7.324111005E0,1
3.319381625,-0.5726000679,-1.485498293,-5.188507513,5.427263236E0,1
3.329393625,-0.2812902492,-0.3689365035,-3.056151341,3.091164727E0,1
3.339405625,0.3059632152,0.9718268296,-1.139516496,1.528580623E0,1
3.349417625,0.6462811247,2.017201692,0.4250218266,2.160422531E0,1
3.359429625,0.5482529198,2.633427763,1.03216454,2.881125940E0,1
3.369441625,0.3142664624,3.071957242,1.003721929,3.247020545E0,1
3.379454625,0.2945465267,3.415281772,0.7460012215,3.508193988E0,1
3.389466625,0.6232073539,3.387672974,0.8842177051,3.556199732E0,1
3.399478625,1.344003129,2.716509388,2.64965174,4.025720061E0,1
3.409490625,2.207407816,1.552982763,6.053201365,6.627642982E0,1
3.419502625,3.038891822,0.3007541683,9.668894992,1.013966700E1,1
3.429515625,3.606270838,-0.7491443923,12.17705932,1.272191732E1,1
3.439527625,3.477450538,-1.584420902,13.13609039,1.368064043E1,1
3.449539625,2.71689472,-2.125756128,12.66857743,1.312985949E1,1
3.459551625,1.411970141,-2.239688101,11.17828705,1.148755692E1,1
3.46956375,-0.1066020504,-1.839067875,8.79405739,8.984930719E0,1
3.47957675,-1.142571228,-1.200505148,6.050374821,6.273254108E0,1
3.48958875,-1.383252418,-0.5342887455,3.413634319,3.721794054E0,1
3.49960075,-1.144329851,0.06940250292,1.415279372,1.821352030E0,1
3.50961275,-0.6329217719,0.5503152327,0.08361518383,8.428691023E-1,1
3.51962475,-0.2586785729,0.8258657089,-0.8431989026,1.208285216E0,1
3.52963775,-0.1159225487,0.832946687,-1.601269947,1.808674560E0,1
3.53964975,-0.06251225363,0.8075946218,-2.2449753,2.386635907E0,1
3.54966175,0.09085334245,0.8430803503,-2.756169298,2.883662256E0,1
3.55967375,0.2396808779,0.8552956223,-3.131383957,3.254925961E0,1
3.56968575,0.2468442287,0.9347543129,-3.326358778,3.464009298E0,1
3.57969875,0.2119157764,1.149820313,-3.318121805,3.518085753E0,1
3.58971075,0.0540506565,1.092738186,-3.200850633,3.382668028E0,1
3.59972275,-0.1109048702,0.6583697315,-2.963314514,3.037595019E0,1
3.60973475,-0.1658988653,0.158815932,-2.695783932,2.705549102E0,1
3.61974675,-0.3636058894,-0.2486804737,-2.362089182,2.402814293E0,1
3.62975875,-0.549585354,-0.5901716088,-1.840847329,2.009742640E0,1
3.63977175,-0.5033315759,-0.814003024,-1.157962707,1.502272023E0,1
3.64978375,-0.1998472695,-0.7785246044,-0.1416061145,8.161444618E-1,1
3.65979575,0.1840949801,-0.6814381666,0.9690648973,1.198889366E0,1
3.66980775,0.4731083049,-0.8134953395,1.629305592,1.881553307E0,1
3.67981975,0.5894151253,-1.164429582,1.680083397,2.127436641E0,1
3.68983275,0.6072145613,-1.453492242,1.368417447,2.086603827E0,1
3.69984475,0.556187701,-1.516237398,1.146654777,1.980691239E0,1
3.70985675,0.463835169,-1.323360996,0.8853801316,1.658410494E0,1
3.71986875,0.2545387991,-1.105580426,0.8263483965,1.403548984E0,1
3.72988075,0.08556676514,-1.013385184,0.7931245172,1.289696748E0,1
3.73989375,0.1386901812,-0.8453733359,0.6748791987,1.090574608E0,1
3.74990575,0.4207860671,-0.5655045448,0.9851494181,1.211352831E0,1
3.75991775,1.030859442,-0.2440516716,1.663801825,1.972427165E0,1
3.76992975,1.811263195,-0.01965921611,2.111409107,2.781925460E0,1
3.77994175,2.072959425,-0.01657919526,2.352631896,3.135651843E0,1
3.78995375,1.410485825,-0.3673524928,2.120640691,2.573234357E0,1
3.79996675,0.05922509518,-0.853761313,1.594557343,1.809704150E0,1
3.80997875,-1.396161316,-1.089989995,1.060228252,2.064322784E0,1
3.81999075,-2.095708017,-1.0903572,0.5901688313,2.434988740E0,1
3.83000275,-1.656260086,-1.116613537,0.3177499777,2.022619172E0,1
3.84001475,-0.4320555154,-1.488796707,-0.04598074973,1.550903554E0,1
3.85002775,0.1693090528,-0.5588441277,0.2869877762,6.506414512E-1,1
3.86003975,0.3589579742,0.5641542765,-0.07326093435,6.726723121E-1,1
3.87005175,0.355186045,0.9896199068,-0.6423575699,1.232123344E0,1
3.88006375,0.631573477,0.9829777622,-0.3865980184,1.230686136E0,1
3.89007575,0.9571379661,0.753539452,0.195636726,1.233778149E0,1
3.90008875,1.139929967,0.3312064674,0.6235687119,1.340886271E0,1
3.91010075,1.139038852,-0.1754167619,1.025028598,1.542356695E0,1
3.92011275,1.100912959,-0.4598273778,1.472390297,1.895094654E0,1
3.93012475,1.20652471,-0.39095741,0.979670577,1.602592903E0,1
3.94013675,1.345686835,-0.2803748676,-0.2607489806,1.399097264E0,1
3.95014875,1.132210035,-0.4498543668,-1.269147513,1.759262324E0,1
3.96016175,0.9473639797,0.2845895407,-1.369998534,1.689788656E0,1
3.97017375,1.068210651,0.6422552437,-1.607185575,2.033866088E0,1
3.98018575,1.224738641,0.3690970096,-2.004574045,2.377926501E0,1
3.99019775,1.092187525,0.3558486807,-2.47509715,2.728664100E0,1
4.00020975,0.7327714576,0.2444317406,-2.563236909,2.677103722E0,1
4.01022275,0.2861196108,0.1300423685,-2.713850659,2.731988442E0,1
4.02023475,-0.05362934634,0.433667812,-3.17058486,3.200554988E0,1
4.03024675,-0.2191779086,0.188529143,-2.84843953,2.863073515E0,1
4.04025875,-0.413820608,-0.08050212622,-2.749136267,2.781272784E0,1
4.05027075,-0.5306086542,0.07264054477,-2.974131278,3.021966090E0,1
4.06028275,-0.5704824257,-0.00639539212,-2.508030422,2.572101806E0,1
4.07029575,-0.7629810973,-0.3965830162,-2.010664505,2.186821894E0,1
4.08030775,-1.088961908,-0.6488117266,-2.152693958,2.498176529E0,1
4.09031975,-1.401224128,-0.6126908442,-2.349028257,2.802989989E0,1
4.10033175,-1.67131155,-0.4554779264,-2.47650399,3.022220119E0,1
4.11034375,-1.496211123,-0.5826189065,-2.111760525,2.652852244E0,1
4.12035675,-1.298209052,-0.7699002537,-1.954258754,2.469255034E0,1
4.13036875,-1.011424759,-0.7987913463,-1.875393264,2.275554339E0,1
4.14038075,-0.4317053403,-0.5327506354,-1.390790648,1.550642244E0,1
4.15039275,0.05298103631,-0.334603115,-0.5170242566,6.181264569E-1,1
4.16040475,0.2190045387,-0.39479523,0.2067230469,4.965487687E-1,1
4.17041675,0.04839638069,-0.6839800975,0.5727201551,8.934088423E-1,1
4.18042975,-0.3069071934,-1.101009657,0.5330666775,1.261179755E0,1
4.19044175,-0.7471317807,-1.445688694,0.3459680557,1.663705381E0,1
4.20045375,-1.013832642,-1.523045311,0.2119235605,1.841856466E0,1
4.21046575,-1.029532562,-1.352037642,0.1835160327,1.709275056E0,1
4.22047775,-1.036537819,-0.9797006902,0.05163559198,1.427196667E0,1
4.23048975,-0.9757677068,-0.469614155,0.2084900755,1.102782020E0,1
4.24050275,-0.7693069075,-0.001366494298,0.6582602423,1.012492732E0,1
4.25051475,-0.5208185148,0.2928177425,1.042002481,1.201150834E0,1
4.26052675,-0.2736574401,0.7366544473,1.233698768,1.462723767E0,1
4.27053875,0.03186703295,1.365364031,1.372385368,1.936149799E0,1
4.28055075,0.4168747549,2.010672691,2.170621521,2.988007198E0,1
4.29056375,1.1265348,2.993140576,4.37289519,5.417580964E0,1
4.30057575,2.182703623,4.260791202,6.938569803,8.429845056E0,1
4.31058775,2.963570914,5.250763403,8.572443824,1.048046096E1,1
4.32059975,3.294425087,5.867266924,9.824005251,1.190752439E1,1
4.33061175,2.992362311,6.074539025,11.07612333,1.298209400E1,1
4.34062375,2.414423516,5.672415479,12.11006543,1.358894488E1,1
4.35063675,2.093640588,4.871587256,12.79284948,1.384820173E1,1
4.36064875,2.148395085,4.187622069,13.08048337,1.390146846E1,1
4.37066075,2.168643993,3.760927938,12.42497541,1.316159602E1,1
4.38067275,2.147325337,3.670637281,10.90995248,1.170946827E1,1
4.39068475,2.186387661,3.641840621,8.86605708,9.831086525E0,1
4.40069675,2.043153681,3.387515976,6.633446302,7.723493465E0,1
4.41070975,1.657745864,2.916121636,4.750687886,5.815575821E0,1
4.42072175,1.292640456,2.134982741,2.766649262,3.726046000E0,1
4.43073375,0.8574190387,1.288111787,0.7304955751,1.711146741E0,1
4.44074575,0.3000299907,0.3434040517,-1.003524878,1.102273341E0,1
4.45075775,-0.244953897,-0.5612639979,-2.523001049,2.596257687E0,1
4.46076975,-0.6505740774,-1.582192529,-3.92227016,4.279110075E0,1
4.470782375,-0.9291348463,-2.602654451,-5.044699337,5.752051213E0,1
4.480794375,-1.318885391,-3.785731827,-5.890923589,7.125602071E0,1
4.490806375,-1.400466767,-4.754824791,-7.167573665,8.714572749E0,1
4.500818375,-0.4147978239,-5.060652881,-8.316584285,9.744118174E0,1
4.510830375,-0.9820202807,-5.525227028,-8.956056254,1.056898487E1,1
4.520843375,-2.172710146,-6.385796839,-9.609182641,1.174033482E1,1
4.530855375,-2.888896708,-7.062285191,-10.1933458,1.273286672E1,1
4.540867375,-3.425073227,-7.450042128,-10.51247279,1.333215431E1,1
4.550879375,-3.691388464,-7.434433571,-10.31500881,1.323996065E1,1
4.560891375,-3.52035536,-7.080595163,-10.06468016,1.279943422E1,1
4.570903375,-3.273487085,-8.226437761,-10.6681935,1.386363403E1,1
4.580916375,-3.176407517,-8.342961075,-10.83219504,1.403677362E1,1
4.590928375,-2.96622555,-8.147609108,-10.79381274,1.384515878E1,1
4.600940375,-2.548192023,-7.608860106,-10.28999676,1.304883397E1,1
4.610952375,-2.371785035,-6.726181973,-9.450119079,1.183941041E1,1
4.620964375,-2.424051834,-5.821422415,-8.586685887,1.065345769E1,1
4.630976375,-2.512060323,-4.895094817,-7.431784197,9.246827385E0,1
4.640989375,-2.585046439,-3.942365286,-6.126781558,7.730599032E0,1
4.651001375,-3.111328592,-2.79133036,-3.90465133,5.719981887E0,1
4.661013375,-3.174131781,-1.264828175,1.196715714,3.620363431E0,1
4.671025375,-1.754610107,0.1411541247,3.204319786,3.655987747E0,1
4.681037375,-0.9106661233,1.02918363,5.048595922,5.232289414E0,1
4.691049375,-0.3193288721,2.097036066,5.126672623,5.548180186E0,1
4.701062375,0.05956017718,3.828679041,5.136415254,6.406644385E0,1
4.711074375,0.3891427267,5.63354202,5.871179881,8.146102194E0,1
4.721086375,1.422259047,6.425366701,7.153759033,9.720309992E0,1
4.731098375,3.411033477,5.871409677,9.051003926,1.131500212E1,1
4.741110375,5.004601471,4.747685925,10.60185801,1.264855529E1,1
4.751122375,5.226113881,3.546784775,10.94289803,1.263483145E1,1
4.761135375,4.192296625,2.311651685,10.48070604,1.152233846E1,1
4.771147375,2.407778448,1.331004623,9.293220742,9.691899820E0,1
4.781159375,0.5623536265,0.7176995283,7.304721277,7.361405243E0,1
4.791171375,-0.8470810153,0.4149874198,4.952107508,5.041143678E0,1
4.801183375,-1.642818799,0.3489808336,2.841743883,3.300931615E0,1
4.811195375,-1.875523949,0.3781148779,1.226523065,2.272645985E0,1
4.821208375,-1.664687532,0.3677726153,-0.01208970308,1.704871678E0,1
4.831220375,-1.121565105,0.3597265542,-0.9780210775,1.530959408E0,1
4.841232375,-0.4561450572,0.3964903378,-1.479720951,1.598388875E0,1
4.851244375,0.3180005309,0.5653395072,-1.349326873,1.497135968E0,1
4.861256375,1.211993319,0.903917267,-0.9132274961,1.766346141E0,1
4.871268375,2.060204016,1.335323668,-0.450662452,2.496122299E0,1
4.881281375,2.522810137,1.508567313,-0.3539652926,2.960681974E0,1
4.891293375,2.496192734,1.411615507,-0.7162125814,2.955773497E0,1
4.901305375,2.155189696,1.274693305,-1.288452095,2.815989071E0,1
4.911317375,1.770675186,1.052916601,-1.524918174,2.563064459E0,1
4.921329375,1.446870124,0.7476477975,-1.674375345,2.335796049E0,1
4.931341375,1.077150825,0.5149137041,-2.036181754,2.360386866E0,1
4.941354375,0.7518960189,0.2893035659,-2.455141187,2.583943193E0,1
4.951366375,0.4456318,0.06564932138,-2.803366853,2.839324435E0,1
4.961378375,0.285989291,0.03173751712,-3.012300732,3.026012697E0,1
4.971390375,0.294974488,0.1190367392,-2.941551177,2.958699549E0,1
4.981402375,0.3540189408,0.1667555737,-2.801757115,2.828953828E0,1
4.991414375,0.4457876283,0.1666433072,-2.715642246,2.757029091E0,1
5.001427375,0.5739730673,0.234899025,-2.578242618,2.651783859E0,1
5.011439375,0.7909103959,0.3886062446,-2.194285787,2.364623476E0,1
5.021451375,1.099357307,0.5284204799,-1.467435951,1.908188398E0,1
5.031463375,1.325135772,0.5614984712,-0.7808213907,1.637359885E0,1
5.041475375,1.193605507,0.466688793,-0.3374357986,1.325275614E0,1
5.051487375,0.9226114002,0.2690847713,0.03029033124,9.615279060E-1,1
5.061499375,0.6377368078,-0.08544448525,0.3912032855,7.530265643E-1,1
5.071512375,0.4125102469,-0.4406087494,0.9914503777,1.160721597E0,1
5.081524375,0.2828732367,-0.6934882548,1.775923355,1.927393833E0,1
5.091536375,0.2337977019,-0.8569992086,2.521780735,2.673665477E0,1
5.101548375,0.388572477,-0.8994529179,3.213980556,3.360011180E0,1
5.111560375,0.6452991579,-0.9426615027,3.569991204,3.748314142E0,1
5.121572375,0.7657539931,-0.9168738198,3.460141903,3.660548970E0,1
5.131585375,0.7522260211,-0.8415596357,3.003272631,3.208381696E0,1
5.141597375,0.6011768726,-0.6771102038,2.471391769,2.632046568E0,1
5.151609375,0.4076561809,-0.5871282792,1.877230459,2.008705397E0,1
5.161621375,0.2501366497,-0.549684172,1.054326657,1.215041453E0,1
5.171633375,0.2096478242,-0.4998480606,0.2374174207,5.917493773E-1,1
5.181645375,0.2061332821,-0.4568528992,-0.4879618406,6.995085842E-1,1
5.191657375,0.1329813983,-0.3596984875,-1.090130328,1.155617232E0,1
5.201670375,0.09224187344,-0.2420016378,-1.574569806,1.595726615E0,1
5.211682375,0.04612919591,-0.1044061285,-1.904890712,1.908307409E0,1
5.221694375,0.05958210424,0.01721040219,-1.940121941,1.941112921E0,1
5.231706375,0.2003074819,0.0864937681,-1.757767165,1.771256522E0,1
5.241718375,0.3342656576,0.1024072579,-1.62179075,1.659043704E0,1
5.251730375,0.4043641254,0.01772758842,-1.564203862,1.615722233E0,1
5.261743375,0.3921280226,-0.09497310787,-1.561468534,1.612751767E0,1
5.271755375,0.2781222278,-0.1550626042,-1.415572903,1.450945563E0,1
5.281767375,0.1984425125,-0.1397124937,-0.9954668301,1.024623454E0,1
5.291779375,0.2836805179,-0.1846150169,-0.5492488468,6.451601633E-1,1
5.301791375,0.4231722792,-0.342275539,-0.4075602865,6.799505200E-1,1
5.311803375,0.4409477417,-0.49833217,-0.5050479895,8.353701780E-1,1
5.321815375,0.3154420086,-0.5867759845,-0.5836509401,8.856964133E-1,1
5.331828375,0.1686473673,-0.6245206386,-0.5545955408,8.520822591E-1,1
5.341840375,0.0634402433,-0.6818341693,-0.6310753673,9.312242577E-1,1
5.351852375,-0.03513957337,-0.6831623644,-0.9011366236,1.131367677E0,1
5.361864375,-0.03845604099,-0.5431276891,-1.066198844,1.197182746E0,1
5.371876375,-0.01140879482,-0.4263649321,-1.063731319,1.146054769E0,1
5.381888375,0.06623188678,-0.3753140616,-1.070581332,1.136394164E0,1
5.391901375,0.03791217685,-0.451219984,-1.304533108,1.380885019E0,1
5.401913375,-0.1507811999,-0.6394982815,-1.621404249,1.749469851E0,1
5.411925375,-0.351039017,-0.7969246227,-1.756617603,1.960617925E0,1
5.421937375,-0.5863162837,-0.899376027,-1.701813405,2.012166217E0,1
5.431949375,-0.6617036676,-0.9017502889,-1.502602276,1.873184168E0,1
5.441961375,-0.5171819121,-0.8256426376,-1.220989845,1.562043244E0,1
5.451973375,-0.4064968607,-0.7481407177,-1.12007158,1.406952230E0,1
5.461986375,-0.3695828401,-0.7285639474,-1.336744249,1.566614850E0,1
5.4719985,-0.4825599635,-0.8121677291,-1.795146661,2.028554183E0,1
5.4820105,-0.7149183002,-0.9516717696,-2.271102998,2.564117034E0,1
5.4920225,-0.9284372004,-1.006561045,-2.340208901,2.711408946E0,1
5.5020345,-1.039235797,-0.8721011049,-1.979991766,2.400195569E0,1
5.5120465,-1.265280164,-0.8043184268,-1.710591829,2.274639847E0,1
5.5220595,-1.31948897,-0.9038213727,-1.470165431,2.172402037E0,1
5.5320715,-1.332282532,-1.186043376,-1.580032275,2.382892701E0,1
5.5420835,-1.429984827,-1.439649105,-1.842421399,2.740796010E0,1
5.5520955,-1.434897073,-1.393738815,-1.903224256,2.761104863E0,1
5.5621075,-1.390564654,-1.055610413,-1.55511378,2.338025293E0,1
5.5721195,-1.278586235,-0.559717117,-0.6774695152,1.551460910E0,1
5.5821315,-1.000016695,-0.1840004745,0.3089861709,1.062714458E0,1
5.5921445,-0.7984849522,0.08620023787,1.166301422,1.416074753E0,1
5.6021565,-0.4800854219,0.3383690143,2.183722208,2.261331086E0,1
5.6121685,0.2222572351,0.6238949865,3.964360172,4.019302776E0,1
5.6221805,1.030892332,1.257491089,6.641013184,6.837183554E0,1
5.6321925,1.541530991,2.37615349,9.304093055,9.725665570E0,1
5.6422045,1.607921301,3.794087498,11.24043009,1.197195805E1,1
5.6522165,1.126065415,4.515946736,12.06194752,1.292874225E1,1
5.6622295,0.4492304689,4.070939711,12.0061569,1.268550991E1,1
5.6722415,-0.1469231339,2.900065767,10.73455238,1.112036792E1,1
5.6822535,-0.5059367663,2.062646837,8.802998368,9.055565374E0,1
5.6922655,-0.669160037,2.068225665,7.422441516,7.734207821E0,1
5.7022775,-0.4678642295,2.594542024,6.727004092,7.225173306E0,1
5.7122895,0.00538674742,2.992259108,6.15187313,6.840993100E0,1
5.7223015,0.4513819519,2.890700574,5.747328837,6.449161514E0,1
5.7323145,0.7295535886,2.431145384,5.638841937,6.183789671E0,1
5.7423265,0.6133450015,1.84342215,5.839997849,6.154670763E0,1
5.7523385,0.2054102008,1.268695523,6.148665347,6.281549748E0,1
5.7623505,-0.1075734191,0.8772022158,6.151681926,6.214840809E0,1
5.7723625,-0.3091735741,0.6167549515,5.944984607,5.984882366E0,1
5.7823745,-0.3850784732,0.2998056038,5.212343688,5.235140452E0,1
5.7923875,-0.2086673923,-0.1351111735,4.007288091,4.014991277E0,1
5.8023995,0.2138815007,-0.7287456496,2.747366899,2.850410566E0,1
5.8124115,0.7049118139,-1.342390029,1.412691395,2.072343753E0,1
5.8224235,0.9390840299,-1.928939287,-0.1196059656,2.148718496E0,1
5.8324355,1.043901364,-2.365738283,-1.722508455,3.107005481E0,1
5.8424475,1.446051076,-1.978611823,-3.720972744,4.455514182E0,1
5.8524595,1.523840678,-2.63152274,-4.634955116,5.543447598E0,1
5.8624715,1.150917543,-2.711962593,-6.344057075,6.994741773E0,1
5.8724845,0.3985628834,-2.769728114,-7.69756763,8.190408636E0,1
5.8824965,-0.01001766913,-3.33674431,-9.097481105,9.690104509E0,1
5.8925085,-0.8534976766,-4.000716405,-10.15298598,1.094610955E1,1
5.9025205,-1.828244386,-4.557128676,-10.50758803,1.159824579E1,1
5.9125325,-2.501363135,-5.009382155,-10.60789117,1.199491901E1,1
5.9225445,-2.860635068,-5.315475124,-10.71680608,1.229989599E1,1
5.9325565,-2.919472675,-5.491388022,-10.89472867,1.254487050E1,1
5.9425695,-2.812595513,-5.412077558,-10.9527003,1.253646366E1,1
5.9525815,-2.622459263,-5.179587001,-10.69899547,1.217267095E1,1
5.9625935,-2.019934534,-5.117298367,-10.87070246,1.218355655E1,1
5.9726055,-0.591210659,-5.389867494,-13.53910154,1.458449424E1,1
5.9826175,-0.4865574856,-3.175084292,-10.4885378,1.096938119E1,1
5.9926295,0.0530675751,-2.388545494,-7.621005358,7.986719503E0,1
6.0026415,1.026942465,-1.922929373,-7.353004661,7.669351064E0,1
6.0126545,1.425585675,-0.8879809731,-6.917264303,7.118240665E0,1
6.0226665,1.575544683,-0.3122816616,-5.267402825,5.506849680E0,1
6.0326785,1.958643435,0.4751804119,-2.51796835,3.225251175E0,1
6.0426905,2.393454816,1.376868428,0.8558809286,2.890834618E0,1
6.0527025,2.893629444,2.015622359,2.91292087,4.573940626E0,1
6.0627145,3.017859095,2.493339293,5.42831703,6.692595918E0,1
6.0727265,2.574567059,3.061758236,5.085992959,6.470709653E0,1
6.0827395,1.564914883,3.593932629,3.930075608,5.550748113E0,1
6.0927515,0.2334736931,3.979467623,2.745047309,4.840036907E0,1
6.1027635,-0.8350734656,4.052281246,2.430956519,4.798737395E0,1
6.1127755,-0.8247072293,3.595211999,3.460887423,5.058006829E0,1
6.1227875,0.3595459117,2.533010312,5.791281188,6.331220443E0,1
6.1327995,1.763548892,1.380333488,8.443306312,8.735264547E0,1
6.1428115,2.365157362,0.6285514167,10.24182272,1.053014620E1,1
6.1528245,1.926634169,0.3964912149,10.73919273,1.091784709E1,1
6.1628365,0.8171740421,0.6508018264,9.715158162,9.771162395E0,1
6.1728485,-0.3975159029,1.2343405,7.518207799,7.629224329E0,1
6.1828605,-1.260604146,1.722075469,5.035430331,5.469024168E0,1
6.1928725,-1.709167886,1.982434148,2.830789125,3.855472355E0,1
6.2028845,-1.654748435,2.153146825,1.309300928,3.014714340E0,1
6.2128965,-1.184008983,2.162383671,0.5366697317,2.523052678E0,1
6.2229085,-0.3942292926,1.942936791,0.4169602704,2.025901275E0,1
6.2329215,0.4366254799,1.588205805,0.580639624,1.746476986E0,1
6.2429335,1.111038802,1.532150303,0.5937198454,1.983530949E0,1
6.2529455,1.505845434,1.61645575,0.3858232623,2.242623297E0,1
6.2629575,1.617202294,1.384236212,-0.003506575227,2.128723901E0,1
6.2729695,1.243921017,0.978609015,-0.9713827336,1.857040526E0,1
6.2829815,0.6939981321,0.6183255136,-2.216353179,2.403368732E0,1
6.2929935,0.04814279426,-0.146663079,-3.109886668,3.113715285E0,1
6.3030065,-0.4545805616,-0.3761964065,-4.102133437,4.144353503E0,1
6.3130185,-0.8535486205,-0.5536272418,-4.767967578,4.875301344E0,1
6.3230305,-1.324064855,-0.7518557462,-5.137012255,5.357922144E0,1
6.3330425,-1.783771634,-0.893163068,-5.357272775,5.716638269E0,1
6.3430545,-2.073188051,-1.005610287,-5.417887936,5.887518190E0,1
6.3530665,-2.170937417,-1.067268007,-5.23085071,5.763144057E0,1
6.3630785,-2.127738334,-1.052526592,-4.77345402,5.331129892E0,1
6.3730905,-2.051605101,-0.9231996301,-4.085132073,4.663655765E0,1
6.3831035,-1.950896021,-0.7642606142,-3.163331974,3.794306095E0,1
6.3931155,-1.877322845,-0.6916551527,-2.076364989,2.883404148E0,1
6.4031275,-1.718663911,-0.7849398771,-1.042084926,2.157748188E0,1
6.4131395,-1.268013884,-0.971212872,0.1768683332,1.606983528E0,1
6.4231515,-0.317265609,-0.9978331983,1.556698961,1.876070418E0,1
6.4331635,0.8525195105,-0.9680220464,2.653185797,2.950127297E0,1
6.4431755,1.734545241,-0.9366511497,3.30019775,3.844121195E0,1
6.4531875,2.170449905,-0.7069204786,3.631741894,4.289538267E0,1
6.4632005,2.072937644,-0.40880779,3.761995055,4.314719119E0,1
6.47321275,1.53843606,-0.279874346,3.627789761,3.950439686E0,1
6.48322475,0.8377736367,-0.5537763458,2.938615875,3.105478412E0,1
6.49323675,0.3357157671,-0.9391560969,1.837569965,2.090785170E0,1
6.50324875,0.09347245652,-1.229725585,0.8486461687,1.497051246E0,1
6.51326075,-0.04913104679,-1.301126228,0.2140759206,1.319534698E0,1
6.52327275,-0.05560424343,-1.089287452,-0.1891258514,1.106981288E0,1
6.53328575,-0.04701559726,-0.7571638486,-0.4157387871,8.650701122E-1,1
6.54329775,-0.005094605908,-0.4242847851,-0.3909325594,5.769504310E-1,1
6.55330975,0.03785692066,-0.1461029157,-0.2180800939,2.652133778E-1,1
6.56332175,0.1218940907,0.02528160632,0.01545009792,1.254433518E-1,1
6.57333375,0.1055224716,-0.01603832781,0.09422612607,1.423754993E-1,1
6.58334575,-0.1144533626,-0.1908083877,-0.0591820085,2.302388394E-1,1
6.59335775,-0.3931536608,-0.3263757902,-0.2694122154,5.776451326E-1,1
6.60336975,-0.5798166284,-0.2537238434,-0.1281657046,6.457472873E-1,1
6.61338275,-0.6438983843,-0.1704802501,0.1083225936,6.748351127E-1,1
6.62339475,-0.7354889511,-0.2129801524,0.1313360649,7.768871890E-1,1
6.63340675,-0.7457022095,-0.2691607851,0.02229075551,7.931054100E-1,1
6.64341875,-0.5706730449,-0.2393741915,0.1978504819,6.497018862E-1,1
6.65343075,-0.2954946709,-0.128297267,0.4887173009,5.853391235E-1,1
6.66344275,-0.1838074433,-0.05857272863,0.4532352269,4.925831012E-1,1
6.67345475,-0.1682879097,-0.009953130484,0.1444262266,2.219883337E-1,1
6.68346675,-0.2660268968,0.05413001418,-0.1716912085,3.212136973E-1,1
6.69347875,-0.3339714696,0.1517390469,-0.3382368672,4.989647875E-1,1
6.70349175,-0.3356741787,0.2217793348,-0.4710639721,6.194872827E-1,1
6.71350375,-0.1930252864,0.2551955876,-0.3952349406,5.085215899E-1,1
6.72351575,0.05984990671,0.2453281188,-0.2023849976,3.236164156E-1,1
6.73352775,0.2381968546,0.2275031742,-0.2126585555,3.920702706E-1,1
6.74353975,0.3622286508,0.1968655184,-0.3333860171,5.301998342E-1,1
6.75355175,0.4569706475,0.1605540168,-0.300018881,5.697465173E-1,1
6.76356375,0.6836713645,0.1549348426,0.02896067441,7.016053454E-1,1
6.77357575,0.9889026728,0.09698221117,0.156618256,1.005914173E0,1
6.78358875,1.250901276,0.05061291397,0.01393917739,1.252002385E0,1
6.79360075,1.406116055,0.04790711492,-0.240377866,1.427318804E0,1
6.80361275,1.453271656,0.07574892461,-0.4909918678,1.535841600E0,1
6.81362475,1.446227077,0.1487297773,-0.6899509817,1.609262459E0,1
6.82363675,1.408760019,0.1935495624,-0.8640769708,1.663939673E0,1
6.83364875,1.297620822,0.2160549107,-0.9127737522,1.601141919E0,1
6.84366075,1.286124611,0.2012620398,-0.8624561226,1.561554830E0,1
6.85367275,1.44327321,0.1251362622,-0.9602379405,1.738031514E0,1
6.86368575,1.773062166,0.04169210941,-1.320011857,2.210863854E0,1
6.87369775,2.181658433,0.005943987072,-1.726087536,2.781914274E0,1
6.88370975,2.561841471,0.1659866649,-1.8569529,3.168415592E0,1
6.89372175,2.866784,0.4805341226,-1.534032814,3.286733974E0,1
6.90373375,3.141236515,0.8541428438,-0.7299149466,3.336120902E0,1
6.91374575,3.283718835,0.9637722901,0.2163007861,3.429059994E0,1
6.92375775,3.266223089,0.8334638733,0.9604279751,3.505038828E0,1
6.93376975,3.105899452,0.5851867113,1.415592198,3.463084776E0,1
6.94378275,2.947998609,0.3615073237,1.624706172,3.385417772E0,1
6.95379475,2.772469581,0.1728662065,1.740613773,3.278140725E0,1
6.96380675,2.618997419,0.08884171754,1.752336271,3.152415382E0,1
6.97381875,2.434640557,0.1667786703,1.589777829,2.912504646E0,1
6.98383075,2.22769707,0.3671051556,1.354243212,2.632750483E0,1
6.99384275,2.140779086,0.5900419468,1.414484151,2.632840673E0,1
7.00385475,2.156709825,0.6930555609,1.525450271,2.731066057E0,1
7.01386675,2.16666471,0.6439360258,1.631126999,2.787411857E0,1
7.02387875,2.030524719,0.5071024087,1.401764703,2.518953705E0,1
7.03389175,1.746301799,0.3940953183,0.8582630843,1.985320280E0,1
7.04390375,1.401720264,0.3697656387,0.2513671231,1.471302741E0,1
7.05391575,1.060347827,0.3377787378,-0.3501277649,1.166628237E0,1
7.06392775,0.6458431683,0.1738213491,-0.8461932617,1.078596447E0,1
7.07393975,0.318523272,0.04424880445,-1.200722226,1.243040182E0,1
7.08395175,0.1712825612,-0.04025895685,-1.430977392,1.441754069E0,1
7.09396375,0.2251985673,-0.1086953536,-1.400363125,1.422513957E0,1
7.10397575,0.3612982126,-0.1538548619,-1.285112166,1.343771184E0,1
7.11398775,0.4718487415,-0.1788867921,-1.238335025,1.337204305E0,1
7.12400075,0.4926678991,-0.2592491698,-1.228250332,1.348529076E0,1
7.13401275,0.3200047372,-0.4556030568,-1.01883055,1.161030950E0,1
7.14402475,0.04443766952,-0.7239005005,-0.7312808561,1.029940936E0,1
7.15403675,-0.2091700336,-1.071944318,-0.4623861194,1.186009126E0,1
7.16404875,-0.4127948602,-1.375439953,-0.2978922486,1.466620078E0,1
7.17406075,-0.4848093143,-1.50141266,-0.1149498278,1.581927150E0,1
7.18407275,-0.5244659349,-1.482798341,-0.05918376267,1.573930797E0,1
7.19408475,-0.5789099445,-1.464333126,-0.1881212997,1.585811418E0,1
7.20409675,-0.6174275275,-1.436492194,-0.4029579431,1.614652185E0,1
7.21410975,-0.6410102984,-1.442104936,-0.6322243452,1.700078960E0,1
7.22412175,-0.600917037,-1.41105359,-0.8693470663,1.762934440E0,1
7.23413375,-0.5289212939,-1.398844603,-1.067317416,1.837305208E0,1
7.24414575,-0.4852892245,-1.445804469,-1.315167439,2.013832562E0,1
7.25415775,-0.4640953336,-1.505081495,-1.487781338,2.166598277E0,1
7.26416975,-0.4335383693,-1.477495209,-1.505824676,2.153707400E0,1
7.27418175,-0.5518217678,-1.507365125,-1.694985611,2.334444924E0,1
7.28419375,-0.7938285951,-1.607656276,-1.968230676,2.662452729E0,1
7.29420675,-1.104355069,-1.698717012,-2.142414553,2.948759013E0,1
7.30421875,-1.357925642,-1.76682421,-2.020405966,3.007934525E0,1
7.31423075,-1.407472024,-1.760365668,-1.907561721,2.952737120E0,1
7.32424275,-1.169913831,-1.589994761,-2.003106394,2.812333006E0,1
7.33425475,-0.8159804792,-1.249986772,-1.898210853,2.414848963E0,1
7.34426675,-0.6213597069,-0.7185277864,-1.118797472,1.467677706E0,1
7.35427875,-0.5479851904,-0.07877018094,0.4132601523,6.908519840E-1,1
7.36429075,-0.3097322756,0.4443828347,2.504505721,2.562412748E0,1
7.37430275,0.274554403,0.7179857495,5.128371239,5.185660539E0,1
7.38431475,1.50086156,0.9129938999,8.167489057,8.354281583E0,1
7.39432775,3.054455356,1.308075936,10.97181368,1.146391973E1,1
7.40433975,4.413346227,2.170318343,13.59240242,1.445480232E1,1
7.41435175,5.090169041,3.380329455,15.35204479,1.652336913E1,1
7.42436375,3.479240955,3.127941408,14.29977635,1.504568838E1,1
7.43437575,0.8627022904,2.73120081,13.51956015,1.381963168E1,1
7.44438775,1.52013252,4.021680427,8.580448662,9.597333775E0,1
7.45439975,1.139879316,3.819219708,5.609131649,6.880997158E0,1
7.46441175,0.9127453932,4.978201877,3.477306989,6.140623908E0,1
7.474423625,1.641809131,5.323800389,1.841272421,5.867595073E0,1
7.484436625,2.07018609,5.00906699,0.5090638572,5.443856039E0,1
7.494448625,1.958862267,5.211182431,-0.01610732496,5.567209638E0,1
7.504460625,1.153794373,5.135140561,-0.9744250399,5.352608167E0,1
7.514472625,0.2554911643,4.417496581,-1.975554314,4.845860772E0,1
7.524484625,-0.3070653605,3.487424426,-2.991437282,4.604901223E0,1
7.534496625,-0.5711924239,2.515652268,-3.464513281,4.319446653E0,1
7.544508625,-0.7707130167,1.544957752,-3.09903599,3.547522668E0,1
7.554520625,-1.307103982,0.4365197915,-2.661799915,2.997373706E0,1
7.564532625,-1.8827935,-0.6250579977,-2.25905481,3.006482579E0,1
7.574544625,-2.235638758,-1.530056707,-2.075330032,3.412645444E0,1
7.584557625,-2.382376974,-2.486474954,-2.246141235,4.111377894E0,1
7.594569625,-2.432704105,-3.227676196,-2.699254839,4.860238634E0,1
7.604581625,-2.412475663,-3.664690662,-2.969392694,5.297857062E0,1
7.614593625,-2.343252377,-3.787642112,-2.93257687,5.332642082E0,1
7.624605625,-2.174197239,-3.728548689,-2.824289945,5.158083235E0,1
7.634617625,-2.021380112,-3.735022434,-2.706216534,5.035869148E0,1
7.644629625,-1.835249497,-3.796869603,-2.569392858,4.938232392E0,1
7.654641625,-1.724382195,-3.973097374,-2.78809451,5.150967647E0,1
7.664653625,-1.583405826,-4.068877105,-3.416110615,5.543712352E0,1
7.674665625,-1.500389689,-4.249164013,-4.210998652,6.167582482E0,1
7.684678625,-1.686080886,-4.575465544,-4.967756996,6.961060499E0,1
7.694690625,-1.938813626,-4.784531278,-5.557473253,7.585265110E0,1
7.704702625,-2.112636584,-4.879385687,-6.091309424,8.085523392E0,1
7.714714625,-2.26633664,-4.825774321,-6.551004655,8.446303425E0,1
7.724726625,-2.39744291,-4.770985326,-6.853197531,8.687712580E0,1
7.734738625,-2.496389201,-4.779625171,-6.780612534,8.663341282E0,1
7.744750625,-2.514709112,-4.787984351,-6.584470024,8.520786440E0,1
7.754762625,-2.399156729,-4.753522031,-6.150528855,8.135166249E0,1
7.764774625,-2.172396297,-4.509702494,-5.484981228,7.425748536E0,1
7.774787625,-1.889931927,-3.826174094,-4.571971833,6.254148809E0,1
7.784799625,-1.598484041,-2.562093778,-3.291884179,4.467211346E0,1
7.794811625,-1.379485496,-0.6252608961,-1.741304914,2.307828899E0,1
7.804823625,-1.436350545,1.601811399,-0.4473903501,2.197512405E0,1
7.814835625,-1.251301372,3.345835853,0.01929347277,3.572218487E0,1
7.824847625,-0.11741019,4.617036324,0.1718408972,4.621724663E0,1
7.834859625,2.117443287,5.717084114,0.597584855,6.125824393E0,1
7.844871625,4.882232989,6.372504948,1.175924184,8.113434289E0,1
7.854883625,7.408838553,6.394671743,1.70948729,9.935042134E0,1
7.864895625,9.150307775,5.830634703,1.8703822,1.101012093E1,1
7.874907625,9.79107841,4.852430608,2.42116828,1.119255802E1,1
7.884920625,9.410728726,3.56489711,3.746632081,1.073813571E1,1
7.894932625,8.051520059,2.000916027,5.801346585,1.012354989E1,1
7.904944625,6.06125532,0.2485206985,7.515823889,9.658581020E0,1
7.914956625,3.727379538,-1.340131541,8.08693489,9.004877939E0,1
7.924968625,1.490705677,-2.308651771,7.760493611,8.232699284E0,1
7.934980625,-0.3335614336,-2.394119645,7.117485246,7.516759164E0,1
7.944992625,-1.514704258,-1.643031053,5.999600524,6.402271978E0,1
7.955004625,-1.846052228,-0.575374791,3.946460676,4.394714649E0,1
7.965016625,-1.50250872,0.6664878595,1.558375357,2.265010436E0,1
7.975028625,-0.977345651,2.046700602,-0.3985696077,2.302834256E0,1
7.985041625,-0.7481096544,3.223858257,-1.815850482,3.774949415E0,1
7.995053625,-0.5904243547,3.652169727,-2.830797896,4.658364666E0,1
8.005065625,-0.2158476269,3.207846534,-3.568168042,4.802987899E0,1
8.015077625,0.3449667566,2.31436947,-3.900136694,4.548227605E0,1
8.025089625,0.8678388501,1.380366817,-3.753477416,4.092328131E0,1
8.035101625,1.078064525,0.6841964445,-3.37065436,3.604394361E0,1
8.045113625,0.951606427,0.1811815318,-2.942612447,3.097958933E0,1
8.055125625,0.5115647113,-0.1952818,-2.454719018,2.515050475E0,1
8.065137625,-0.2465585922,-0.5425254259,-1.842208561,1.936196622E0,1
8.075149625,-0.9962749153,-1.005759391,-1.284204678,1.911360070E0,1
8.085161625,-1.483587423,-1.692242682,-0.9066774452,2.426268931E0,1
8.095174625,-1.684906473,-2.51449832,-0.7294038999,3.113461365E0,1
8.105186625,-1.742542185,-3.219969859,-0.6077040464,3.711329056E0,1
8.115198625,-1.715915719,-3.676368137,-0.5873358554,4.099391765E0,1
8.125210625,-1.705605762,-3.884203909,-0.6067375016,4.285354293E0,1
8.135222625,-1.712467031,-3.883907747,-0.5409329367,4.279005862E0,1
8.145234625,-1.632634996,-3.690962495,-0.3835212135,4.054107755E0,1
8.155246625,-1.406937588,-3.36298983,-0.1867512971,3.650212325E0,1
8.165258625,-1.077996771,-2.9624769,0.04037385464,3.152772822E0,1
8.175270625,-0.7231744225,-2.526112352,0.2533762264,2.639777334E0,1
8.185282625,-0.3964802514,-2.117997165,0.4876349813,2.209275097E0,1
8.195294625,-0.1414548726,-1.815815983,0.681453808,1.944627589E0,1
8.205307625,0.06542374676,-1.580672252,0.6850533539,1.723978867E0,1
8.215319625,0.1215943844,-1.448595053,0.5246747535,1.545476114E0,1
8.225331625,-0.05323507955,-1.450674908,0.2824515063,1.478874746E0,1
8.235343625,-0.4472336082,-1.559739513,-0.04384827018,1.623184499E0,1
8.245355625,-0.9414020855,-1.631880121,-0.2997341216,1.907645449E0,1
8.255367625,-1.417974208,-1.575586052,-0.4036444062,2.157788467E0,1
8.265379625,-1.688710964,-1.406755886,-0.4842424268,2.250599380E0,1
8.275391625,-1.865182125,-1.270365196,-0.5926691008,2.333235683E0,1
8.285403625,-2.097306938,-1.107348916,-0.6404426068,2.456640948E0,1
8.295415625,-2.24288112,-0.9110996944,-0.6580596828,2.508716986E0,1
8.305427625,-2.308132684,-0.7356645137,-0.6628812969,2.511591204E0,1
8.315440625,-2.35301942,-0.5956681377,-0.6953058618,2.524870524E0,1
8.325452625,-2.313235111,-0.4058634245,-0.6780875659,2.444500878E0,1
8.335464625,-2.193028051,-0.165665068,-0.6395240092,2.290372875E0,1
8.345476625,-2.114332568,0.01168653756,-0.5274931115,2.179171349E0,1
8.355488625,-2.120628412,0.08079624116,-0.2705927682,2.139348812E0,1
8.365500625,-2.216521287,0.04778256923,0.05209050536,2.217648126E0,1
8.375512625,-2.461901153,-0.01526912659,0.5015367365,2.512514584E0,1
8.385524625,-2.746307968,-0.1082033104,1.0185569,2.931104497E0,1
8.395536625,-2.838388459,-0.401880886,1.484393461,3.228216417E0,1
8.405548625,-2.675011699,-0.8352341178,1.753296969,3.305654834E0,1
8.415560625,-2.480780643,-1.273191155,1.769349915,3.302406310E0,1
8.425572625,-2.403409701,-1.570107796,1.598544559,3.285873003E0,1
8.435585625,-2.807842019,-1.642506266,1.426849843,3.552140779E0,1
8.445597625,-3.488995573,-1.536066476,1.535726752,4.109871894E0,1
8.455609625,-3.764930942,-1.493654574,1.856296842,4.455507485E0,1
8.465621625,-3.492169734,-1.698709995,2.025353295,4.379831169E0,1
8.475633625,-2.917554789,-2.017401374,1.91913336,4.033002245E0,1
8.485645625,-2.32350019,-2.380499725,1.505566229,3.651323287E0,1
8.495657625,-1.77873148,-2.56913558,0.8714929944,3.244047371E0,1
8.505669625,-1.350202055,-2.417909042,0.2342610937,2.779245938E0,1
8.515681625,-1.201126926,-1.975589982,-0.2794974929,2.328901139E0,1
8.525693625,-1.248678457,-1.334696262,-0.6572556907,1.942317442E0,1
8.535705625,-1.308875689,-0.6916007736,-0.907836948,1.736558413E0,1
8.545718625,-1.345489638,-0.2996154231,-1.057456672,1.737333123E0,1
8.555730625,-1.257606571,-0.1202971065,-1.284711047,1.801812464E0,1
8.565742625,-0.9928953709,-0.09287132621,-1.391302865,1.711779764E0,1
8.575754625,-0.6297280227,-0.1852006155,-1.276599205,1.435465841E0,1
8.585766625,-0.3354416057,-0.3729459393,-1.245189131,1.342425312E0,1
8.595778625,-0.105156107,-0.5511070919,-1.357729906,1.469083841E0,1
8.605790625,0.008142722882,-0.4935468087,-1.3762036,1.462050308E0,1
8.615802625,-0.03980685744,-0.1839127663,-0.9482207429,9.667114714E-1,1
8.625814625,-0.1107731616,0.04353252053,-0.2953785306,3.184560410E-1,1
8.635826625,-0.2861772424,-0.000591738224,0.01392280519,2.865163324E-1,1
8.645838625,-0.4848740722,-0.1417028859,-0.06167935431,5.089075717E-1,1
8.655850625,-0.4289567835,-0.2302838176,-0.2983150023,5.709872147E-1,1
8.665862625,-0.3142694226,-0.1826196545,-0.5550142014,6.634425159E-1,1
8.675875625,-0.4472549871,0.1136061376,-0.5160963035,6.923140706E-1,1
8.685887625,-0.7356602014,0.7080475295,0.3148608685,1.068487062E0,1
8.695899625,-1.010479118,1.07441769,1.722990265,2.268068975E0,1
8.705911625,-0.6185725585,0.9764917383,1.79128516,2.131870223E0,1
8.715923625,0.1961149552,0.7701592854,0.1789283073,8.146298175E-1,1
8.725935625,0.5529853638,0.2984369168,-1.831316367,1.936124232E0,1
8.735947625,0.5364212251,-0.4100845295,-3.383194883,3.449916618E0,1
8.745959625,0.5720528416,-0.8650470239,-4.398352212,4.518965921E0,1
8.755971625,0.6176279408,-1.463116613,-4.441262589,4.716671271E0,1
8.765983625,0.1775792085,-1.633276143,-1.769179176,2.414357118E0,1
8.775995625,-0.6347475649,-0.449845596,1.34331535,1.552340704E0,1
8.786007625,-0.5407205366,-1.303746073,1.175838815,1.837043668E0,1
8.796019625,-0.3924303237,-2.857111243,0.4422646809,2.917650470E0,1
8.806032625,0.2660544518,-4.208908272,-0.8046885556,4.293392305E0,1
8.816044625,0.2209250566,-5.457892832,-3.067192054,6.264588505E0,1
8.826056625,-1.74095759,-6.776235309,-4.360844078,8.244104521E0,1
8.836068625,-5.722916712,-5.999416922,-5.81485833,1.012706060E1,1
8.846080625,-5.25910621,-0.5696079746,-3.409055949,6.293195837E0,1
8.856092625,0.4713230038,3.371902741,-0.04655026853,3.405002260E0,1
8.866104625,6.956851122,1.904564438,1.183548954,7.309304438E0,1
8.876116625,9.984769768,1.794530949,3.784840711,1.082778776E1,1
8.886128625,8.730786424,2.524597338,4.591933057,1.018263583E1,1
8.896140625,4.664130675,1.821598587,3.252138315,5.970656580E0,1
8.906152625,3.360504178,1.578689754,2.805725035,4.653745013E0,1
8.916164625,3.75291199,1.888626097,1.664260831,4.518962387E0,1
8.926176625,3.463599946,2.553283778,1.814804415,4.670042580E0,1
8.936189625,3.625404975,3.454027762,3.780489798,6.274230799E0,1
8.946201625,4.94712568,3.916175899,5.130935243,8.132464734E0,1
8.956213625,6.339088696,4.024639411,5.208602055,9.138451906E0,1
8.966225625,7.006263603,4.470000485,4.937742653,9.666950735E0,1
8.976237625,7.297508737,5.26906168,4.531838298,1.007741054E1,1
8.986249625,7.131489328,5.907111021,3.401017781,9.865040425E0,1
8.996261625,6.299449836,5.756869739,2.228881423,8.820007360E0,1
9.006273625,5.225715685,4.822318909,2.08708352,7.410720728E0,1
9.016285625,4.081120006,3.361738233,2.854958006,6.008960781E0,1
9.026297625,3.073013542,1.584284955,4.003974473,5.290102327E0,1
9.036309625,2.094827573,-0.3177502701,5.117548628,5.538824041E0,1
9.046321625,1.101727111,-2.232493541,5.701788383,6.221593108E0,1
9.056333625,0.2944552553,-3.587893917,5.589416007,6.648402662E0,1
9.066345625,-0.3802993977,-4.159555726,5.396801122,6.824367650E0,1
9.076357625,-0.9014131969,-4.224044375,4.839837459,6.486842318E0,1
9.086370625,-0.9844956994,-3.286652968,4.247233263,5.459881858E0,1
9.096382625,-0.859229629,-2.161128566,3.738540119,4.402889330E0,1
9.106394625,-3.018107602,-2.203841307,3.010568787,4.798897209E0,1
9.116406625,-4.998625032,-2.458169753,1.997413545,5.917644093E0,1
9.126418625,-5.070386156,-1.739296396,0.2567898309,5.366554643E0,1
9.136430625,-5.438492355,-1.555828895,-1.365644113,5.819174038E0,1
9.146442625,-5.763863009,-2.151837048,-3.119319981,6.898019760E0,1
9.156454625,-5.962720966,-2.479796557,-5.099562008,8.228545737E0,1
9.166466625,-5.985315192,-2.425185609,-6.962518244,9.496430039E0,1
9.176478625,-5.547019601,-2.105739939,-8.61451454,1.046008738E1,1
9.186490625,-5.265515344,-1.68818413,-9.441412575,1.094147563E1,1
9.196502625,-5.487256379,-1.241843647,-9.50981038,1.104937336E1,1
9.206514625,-5.855952562,-0.7989120913,-9.541394116,1.122357530E1,1
9.216526625,-6.108293247,-0.5637297687,-9.460607815,1.127528882E1,1
9.226538625,-6.194810404,-0.6156705853,-9.118939217,1.104127613E1,1
9.236551625,-5.991389279,-0.9347750705,-8.55341406,1.048481960E1,1
9.246563625,-5.634424365,-1.660968264,-7.954707125,9.888524609E0,1
9.256575625,-5.437432839,-2.467434958,-7.411199659,9.517341622E0,1
9.266587625,-5.406668299,-2.799736317,-6.868566352,9.178659448E0,1
9.276599625,-5.169597033,-2.50630754,-6.26697557,8.501840610E0,1
9.286611625,-4.344016376,-1.778906896,-5.642316352,7.339667693E0,1
9.296623625,-2.97647835,-0.8869641423,-4.933076575,5.829354446E0,1
9.306635625,-1.228330439,0.1197097537,-4.289906242,4.463902067E0,1
9.316647625,0.7270813859,1.192435844,-3.61074045,3.871433479E0,1
9.326659625,2.535677812,2.161957994,-2.552084514,4.197244299E0,1
9.336671625,3.767922378,3.270683345,-0.9389254242,5.077025658E0,1
9.346683625,4.27722714,4.387085797,1.170768694,6.237939815E0,1
9.356695625,4.547091345,5.252530432,3.303317825,7.692660417E0,1
9.366707625,4.736602528,5.329048265,4.157213624,8.253277169E0,1
9.376719625,5.14179937,4.395097067,3.271097327,7.513658012E0,1
9.386732625,5.807085042,3.13799628,2.280149226,6.983433098E0,1
9.396744625,6.806237957,2.376781773,2.464730036,7.618980304E0,1
9.406756625,8.27458432,2.500641296,3.717269118,9.409571842E0,1
9.416768625,9.917608649,3.044867092,5.57553004,1.177780591E1,1
9.426780625,10.92369344,3.203159991,7.204313475,1.347180184E1,1
9.436792625,10.6388054,2.681001586,8.182529265,1.368669920E1,1
9.446804625,8.93409879,1.844557972,8.501476167,1.246978798E1,1
9.456816625,6.513004185,0.964858118,8.11902324,1.045316761E1,1
9.466828625,4.136205162,0.1313860586,6.968839669,8.104947981E0,1
9.476840292,2.03758684,-0.6353029042,5.192301772,5.613854968E0,1
9.486852292,0.3731096613,-1.225603298,3.301780592,3.541619593E0,1
9.496864292,-0.9947587323,-1.55501467,1.66456781,2.485639064E0,1
9.506876292,-1.998642045,-1.6964939,0.3034547049,2.639080585E0,1
9.516888292,-2.534449312,-1.817635637,-0.8098422915,3.222278256E0,1
9.526900292,-2.7384306,-1.971876707,-1.411179889,3.657694435E0,1
9.536912292,-2.640320168,-2.001329133,-1.53636059,3.651987507E0,1
9.546924292,-2.298676713,-1.8533516,-1.474156741,3.300297696E0,1
9.556937292,-1.859778859,-1.562625406,-1.400957202,2.804149897E0,1
9.566949292,-1.640921085,-1.34576855,-1.219447349,2.447604305E0,1
9.576961292,-1.811458638,-1.266896043,-1.070151561,2.455938180E0,1
9.586973292,-2.182436405,-1.3588783,-1.293539758,2.877989576E0,1
9.596985292,-2.536912159,-1.589669071,-1.70016449,3.442895635E0,1
9.606997292,-2.729094935,-1.76471395,-1.99328658,3.812527492E0,1
9.617009292,-2.93624249,-1.805795025,-2.028127214,3.999464418E0,1
9.627021292,-3.031495972,-1.766872157,-1.968803703,4.023430510E0,1
9.637033292,-2.906724576,-1.595438519,-1.854646758,3.799234979E0,1
9.647045292,-2.567084377,-1.276880163,-1.611908956,3.289163363E0,1
9.657057292,-2.030104743,-0.8350505152,-1.382509822,2.594218194E0,1
9.667069292,-1.630017782,-0.4229089352,-1.147861058,2.037987965E0,1
9.677081292,-1.534887677,-0.1955861476,-0.6100686604,1.663225148E0,1
9.687093292,-1.282914782,-0.1060173288,0.09709360063,1.290944298E0,1
9.697105292,-0.4354234385,-0.1628645441,0.5702216399,7.357113219E-1,1
9.707117292,0.6671602893,-0.2604700685,0.6655493814,9.777031693E-1,1
9.717129292,1.604155548,-0.2201172638,0.5979111296,1.726054562E0,1
9.727141292,2.261179689,0.005920305848,0.6033309138,2.340294175E0,1
9.737153292,2.723753504,0.3786460975,0.7436026937,2.848710407E0,1
9.747166292,2.970048167,0.8195694271,0.9557016706,3.225871331E0,1
9.757178292,2.947431722,1.135228733,1.354225085,3.436571491E0,1
9.767190292,2.65560362,0.9968730855,1.674734364,3.294043371E0,1
9.777202292,2.395504265,0.5238561434,1.739204594,3.006276529E0,1
9.787214292,2.168638145,0.02283220768,1.700504798,2.755944354E0,1
9.797226292,1.93492552,-0.27737203,1.58863119,2.518853126E0,1
9.807238292,1.562147396,-0.3632652891,1.308874665,2.070125370E0,1
9.817250292,1.059614294,-0.4450850853,0.9159721792,1.469655816E0,1
9.827262292,0.6031028724,-0.5637783006,0.5405639774,9.868072053E-1,1
9.837274292,0.1987760961,-0.6924959823,0.2837039798,7.743065092E-1,1
9.847286292,-0.1988521099,-0.8091491041,0.07749373376,8.368211953E-1,1
9.857298292,-0.4741495478,-0.8766721657,-0.1222687876,1.004152148E0,1
9.867310292,-0.7098812163,-0.919347192,-0.2364958996,1.185352653E0,1
9.877322292,-1.011040889,-1.000577297,-0.4335727948,1.487058833E0,1
9.887334292,-1.225088743,-1.161918641,-0.8260946274,1.879715322E0,1
9.897346292,-1.260636306,-1.212019339,-1.388328971,2.232857386E0,1
9.907358292,-1.252563055,-1.14651269,-1.856267606,2.515777212E0,1
9.917370292,-1.226059965,-1.012743306,-2.17231312,2.692176877E0,1
9.927382292,-1.162148729,-0.9190738347,-2.357376911,2.784333364E0,1
9.937395292,-1.054778062,-0.9071215412,-2.504789895,2.865204822E0,1
9.947407292,-0.8269342875,-0.9040336266,-2.562337607,2.840188572E0,1
9.957419292,-0.4943709737,-0.8871606088,-2.611060116,2.801623018E0,1
9.967431292,-0.1732950997,-0.7666196734,-2.600858479,2.717020748E0,1
9.977443292,0.03756192863,-0.5099964881,-2.549649149,2.600426523E0,1
9.987455292,0.1762917978,-0.3133625194,-2.521629876,2.547134096E0,1
9.997467292,0.3441817313,-0.2038014856,-2.422723639,2.455521521E0,1
10.00747929,0.5219195455,-0.1238335025,-2.150203629,2.216102523E0,1
10.01749129,0.6710498571,-0.1409521034,-1.738138062,1.868501895E0,1
10.02750329,0.8687880725,-0.2134353581,-1.363717455,1.630972920E0,1
10.03751529,1.046646339,-0.1798963138,-0.9795325828,1.444754416E0,1
10.04752729,1.169642521,-0.1035705614,-0.5925778842,1.315271469E0,1
10.05753929,1.292950943,-0.03231346786,-0.1583215499,1.303008831E0,1
10.06755129,1.358839708,0.01122840822,0.2364608163,1.379306038E0,1
10.07756329,1.338639332,0.000443803668,0.5703701591,1.455086794E0,1
10.08757529,1.187744331,-0.08581490636,0.7921661586,1.430254528E0,1
10.09758729,1.061538613,-0.1484950116,0.964886477,1.442193090E0,1
10.10759929,0.984786306,-0.069497374,1.119106205,1.492324580E0,1
10.11761129,0.8928177899,0.02203874052,1.179219675,1.479245873E0,1
10.12762329,0.7541487318,0.1066394725,1.166748734,1.393346652E0,1
10.13763529,0.663706339,0.1564217895,1.111501316,1.303997338E0,1
10.14764829,0.5932362807,0.1696262643,1.066097687,1.231773775E0,1
10.15766029,0.4263982612,0.08577485293,0.981388489,1.073450590E0,1
10.16767229,0.2349814707,0.05780762047,0.926678431,9.577530617E-1,1
10.17768429,0.1137178195,0.16611238,0.933438397,9.548991079E-1,1
10.18769629,0.0506193459,0.3242614371,0.7790374053,8.453443538E-1,1
10.19770829,-0.04633392155,0.3492398652,0.4961257231,6.084866875E-1,1
10.20772029,-0.1095236117,0.2843027347,0.2124960029,3.714539241E-1,1
10.21773229,-0.2032059467,0.1580250961,0.03223686934,2.594297660E-1,1
10.22774429,-0.3700340259,0.03213132709,-0.008150433898,3.715158571E-1,1
10.23775629,-0.4760411221,0.09871795714,0.04947446108,4.886799641E-1,1
10.24776829,-0.624713012,0.1827284127,0.0182070601,6.511432386E-1,1
10.25778029,-0.7554409665,0.2586776045,0.006738916039,7.985302561E-1,1
10.26779229,-0.7740351123,0.2189983991,0.1041815954,8.111377557E-1,1
10.27780429,-0.6769456047,0.2355571291,0.1054428399,7.244727084E-1,1
10.28781629,-0.6946819639,-0.04119509608,-0.3891719627,7.973298461E-1,1
10.29782829,-0.8746972686,-0.1450425231,-0.7621798825,1.169209484E0,1
10.30784029,-0.8485526133,0.7975093442,0.1344461989,1.172236526E0,1
10.31785229,-0.7632949466,0.9468381688,0.2754301697,1.246989764E0,1
10.32786429,-0.6522411186,0.4338271487,-0.09510905564,7.890945470E-1,1
10.33787629,-0.3430076104,0.1808154961,-0.1176693678,4.052092602E-1,1
10.34788829,0.05052812934,0.2856832623,0.04724433303,2.939388461E-1,1
10.35790029,0.09780637622,0.3035476756,0.1113695776,3.378024000E-1,1
10.36791229,-0.2841969001,0.05996962845,-0.09411736786,3.053232931E-1,1
10.37792429,-0.6146452761,-0.196957612,-0.4632105768,7.944464455E-1,1
10.38793729,-0.776450597,-0.2671727318,-0.8302426422,1.167715566E0,1
10.39794929,-0.8817899412,-0.3075910252,-1.064070457,1.415772467E0,1
10.40796129,-0.9386751634,-0.3553809035,-1.200242169,1.564604715E0,1
10.41797329,-0.8843235397,-0.3832785541,-1.269580207,1.593977564E0,1
10.42798529,-0.6858444822,-0.3703795964,-1.241110699,1.465578202E0,1
10.43799729,-0.3914634866,-0.3117551199,-1.13959134,1.244629800E0,1
10.44800929,-0.07638510168,-0.2144612521,-1.034041497,1.058805992E0,1
10.45802129,0.1504114366,-0.1347268653,-0.9586129993,9.796498410E-1,1
10.46803329,0.2534668583,-0.1460830352,-0.8859625143,9.330140825E-1,1
10.47804542,0.3355272675,-0.1577037916,-0.8104977643,8.912663233E-1,1
10.48805742,0.3973206425,-0.1800126734,-0.8620310301,9.661085614E-1,1
10.49806942,0.4931763875,-0.2247245774,-0.8133354181,9.773630785E-1,1
10.50808142,0.6340042377,-0.2483721793,-0.6738483346,9.579779177E-1,1
10.51809342,0.7030762267,-0.2694744882,-0.6079548919,9.677509137E-1,1
10.52810542,0.6936785817,-0.4216260561,-0.6330183971,1.029403127E0,1
10.53811742,0.5768295783,-0.6648944932,-0.7530091095,1.158378077E0,1
10.54812942,0.429794324,-0.8170609716,-0.7934712571,1.217336612E0,1
10.55814142,0.3286456794,-0.8044780558,-0.686392951,1.107397042E0,1
10.56815342,0.3584425056,-0.69517313,-0.4062540185,8.813563627E-1,1
10.57816542,0.4455420452,-0.6012200689,-0.007454030514,7.483507519E-1,1
10.58817742,0.8588156462,-0.415720953,0.7279877043,1.200147625E0,1
10.59818942,1.761176677,-0.06759439766,1.707643079,2.454049138E0,1
10.60820142,3.116366553,0.3479596174,2.779787956,4.190469838E0,1
10.61821342,5.187771934,0.7905818555,4.282239958,6.773151140E0,1
10.62822542,7.521988608,1.321882089,6.149985648,9.805611065E0,1
10.63823742,9.603934765,2.211754052,7.840917385,1.259394316E1,1
10.64824942,11.21400536,3.530109977,9.478083388,1.510131310E1,1
10.65826142,12.16205653,5.103736335,11.30764851,1.737315914E1,1
10.66827342,12.18971152,6.097915024,13.00871932,1.884145464E1,1
10.67828642,11.90556958,5.841515202,13.99877105,1.928293229E1,1
10.68829842,11.16417305,4.745562801,13.78427296,1.836206162E1,1
10.69831042,9.119137437,3.371608918,11.97121978,1.542194921E1,1
10.70832242,6.631952339,2.285326935,8.46883701,1.099666819E1,1
10.71833442,4.285003352,1.523244409,3.100476744,5.504042451E0,1
10.72834642,1.752718679,1.064360479,-2.738758044,3.421356693E0,1
10.73835842,-1.198337147,0.6934286132,-7.08126116,7.215338854E0,1
10.74837042,-4.091738257,-0.02304767758,-8.44138901,9.380826274E0,1
10.75838242,-6.115046781,-0.8683357903,-7.89528538,1.002413764E1,1
10.76839442,-7.365534074,-1.650637696,-6.521186194,9.975047187E0,1
10.77840642,-7.152603623,-2.217001051,-4.82471656,8.908014489E0,1
10.78841842,-6.627108505,-2.678240823,-2.939835019,7.728788456E0,1
10.79843042,-6.531036413,-3.336792257,-1.546844063,7.495421653E0,1
10.80844242,-6.83662886,-3.844189073,-1.146184076,7.926602156E0,1
10.81845442,-7.588662069,-4.149487405,-1.569959861,8.790381772E0,1
10.82846642,-8.552560367,-4.361032943,-2.403383389,9.896522060E0,1
10.83847842,-9.310122703,-4.330354941,-3.764962517,1.093642087E1,1
10.84849042,-9.833774779,-4.25973958,-5.377091328,1.199006334E1,1
10.85850242,-9.983565241,-4.257351869,-6.636847043,1.272180642E1,1
10.86851442,-9.775708419,-4.110269837,-7.372360114,1.291551342E1,1
10.87852642,-9.258159667,-3.850786194,-7.665583946,1.262153921E1,1
10.88853842,-8.480767668,-3.301012267,-7.571796361,1.183858954E1,1
10.89855042,-7.826461313,-2.838205441,-7.090735989,1.093560440E1,1
10.90856242,-6.941827286,-2.467510387,-6.592456151,9.886255696E0,1
10.91857442,-5.879680563,-2.055292501,-6.057442936,8.688353452E0,1
10.92858642,-4.856682118,-1.667157542,-5.234654324,7.332692640E0,1
10.93859842,-4.020213361,-1.285096963,-3.964258431,5.790417478E0,1
10.94861042,-3.298711973,-1.20215684,-2.747284454,4.458054914E0,1
10.95862242,-2.600428124,-1.562477764,-1.827760091,3.541789116E0,1
10.96863442,-2.000376914,-2.021388883,-1.3192716,3.134963854E0,1
10.97864642,-1.315485528,-1.940979728,-1.232283157,2.648853762E0,1
10.98865842,-0.5252992362,-1.185678509,-0.9044338685,1.581067183E0,1
10.99867042,-0.3521152335,-0.4343250391,-0.3851251048,6.789291006E-1,1
11.00868342,-0.3937281132,-0.1040754685,0.2402837259,4.728528303E-1,1
11.01869542,-0.6896305543,0.4600437248,1.082299737,1.363306000E0,1
11.02870742,-1.181936876,1.223490699,2.60077311,3.107720232E0,1
11.03871942,-0.7515373653,1.970740593,4.276264104,4.768129778E0,1
11.04873142,0.830272463,2.760276382,5.662101576,6.353571619E0,1
11.05874342,2.949036782,3.652327017,6.517662662,8.032200020E0,1
11.06875542,4.769000196,4.444979664,6.218111558,9.009224075E0,1
11.07876742,5.880068234,4.474760703,4.802992984,8.812912537E0,1
11.08877942,6.790476787,4.034831985,3.565070772,8.666035642E0,1
11.09879142,7.657880239,3.59318477,3.55866047,9.177045869E0,1
11.10880342,8.12021081,3.329936689,4.96446209,1.008326266E1,1
11.11881542,8.035548974,3.218289369,6.670806502,1.092827036E1,1
11.12882742,7.445241564,3.084331412,7.913154472,1.129436744E1,1
11.13883942,6.297833666,2.335263326,8.382292371,1.074146122E1,1
11.14885142,4.768307886,1.224485895,7.793784733,9.218416690E0,1
11.15886342,3.142620551,0.2513180065,6.240076039,6.991264094E0,1
11.16887542,1.715004723,-0.4738554329,4.021207387,4.397259263E0,1
11.17888742,0.7913384852,-0.7535909075,1.899127112,2.191072715E0,1
11.18889942,0.3529060695,-0.6024076384,0.2874526298,7.550275962E-1,1
11.19891142,0.4968300202,-0.2340459162,-0.7530786914,9.320649523E-1,1
11.20892342,1.210110223,0.2660810566,-1.368037963,1.845723096E0,1
11.21893542,2.043251915,0.6223741257,-1.544855425,2.636058843E0,1
11.22894742,2.604255419,0.7559420729,-1.503109814,3.100473160E0,1
11.23895942,2.768196728,0.8377761948,-1.415077643,3.219817823E0,1
11.24897142,2.491942101,0.7551193696,-1.424883424,2.968210482E0,1
11.25898342,1.835029642,0.307116816,-1.753237912,2.556461950E0,1
11.26899542,0.9477003407,-0.332035895,-2.264119669,2.476816837E0,1
11.27900742,-0.04831642002,-1.021796842,-2.702518755,2.889638539E0,1
11.28901942,-0.8833461776,-1.5921594,-2.89641535,3.421183115E0,1
11.29903142,-1.498050511,-2.172725934,-2.817869117,3.860735639E0,1
11.30904342,-2.031697232,-2.692167429,-2.635357051,4.280264700E0,1
11.31905542,-2.491885968,-2.936530173,-2.640313736,4.669471250E0,1
11.32906742,-2.787439622,-2.832821032,-2.874746738,4.904983533E0,1
11.33907942,-2.922923994,-2.52717713,-3.2576423,5.053943240E0,1
11.34909142,-2.764626418,-1.987506022,-3.394544914,4.807938705E0,1
11.35910342,-1.934410088,-0.9078726161,-3.14628734,3.803327372E0,1
11.36911542,-1.039099046,0.02619961917,-2.628646202,2.826693139E0,1
11.37912742,-0.488988027,0.1659714621,-2.113973111,2.176129162E0,1
11.38913942,-0.1712734249,-0.2620014542,-1.790155478,1.817315598E0,1
11.39915142,-0.01343310088,-0.555134654,-1.48892213,1.589101646E0,1
11.40916342,0.1567258447,-0.4876858521,-1.291827108,1.389682611E0,1
11.41917542,0.2783537775,-0.25269678,-1.016902138,1.084170857E0,1
11.42918742,0.4170172808,-0.04014990628,-0.3735657442,5.613081085E-1,1
11.43919942,0.6454209262,-0.01098516405,0.4243008649,7.724765820E-1,1
11.44921142,0.9359854442,-0.1275382984,1.202717881,1.529334845E0,1
11.45922342,1.354245258,-0.1891480708,1.916412066,2.354228625E0,1
11.46923542,1.559734543,-0.2825000381,2.424843255,2.896971337E0,1
11.47924837,1.351838544,-0.5003409809,2.408425443,2.806834812E0,1
11.48926037,0.8475673574,-0.6847434515,1.956037477,2.239045920E0,1
11.49927237,0.2693452647,-0.813512004,1.524765562,1.749073661E0,1
11.50928438,-0.3897180927,-1.005569649,0.9918205065,1.465182046E0,1
11.51929637,-1.122993726,-1.253127311,0.2528745353,1.701584115E0,1
11.52930838,-1.803235407,-1.456359571,-0.3915938795,2.350741776E0,1
11.53932037,-2.353972662,-1.600910928,-0.8916068316,2.983130207E0,1
11.54933237,-2.66390579,-1.615100366,-1.114455914,3.308618327E0,1
11.55934437,-2.600182541,-1.329881372,-1.036929436,3.099154137E0,1
11.56935637,-2.160327498,-0.9183011252,-0.8114999771,2.483711752E0,1
11.57936837,-1.581742878,-0.6905801421,-0.7328958571,1.875086078E0,1
11.58938037,-0.983525354,-0.4624369901,-0.6291457862,1.255784421E0,1
11.59939237,-0.2884355468,0.02850693047,-0.2314415663,3.709082209E-1,1
11.60940437,0.5075514749,0.6281242776,0.5449207377,9.742110747E-1,1
11.61941637,1.050235945,0.9975852764,1.025285291,1.774649783E0,1
11.62942837,1.294947183,1.075953169,1.213462724,2.075344600E0,1
11.63944038,1.151300097,0.8385562134,1.195166202,1.859325331E0,1
11.64945237,0.7274997541,0.4287289613,1.05969674,1.354998744E0,1
11.65946437,0.3811209315,0.2448603415,0.9923958725,1.090898400E0,1
11.66947637,0.7254766175,0.7851389748,1.521578829,1.859559535E0,1
11.67948837,1.723235556,1.810493263,2.522674774,3.551241283E0,1
11.68950037,2.481452781,2.273370548,3.112262977,4.583885076E0,1
11.69951237,2.394207353,1.674140287,2.797191609,4.044657642E0,1
11.70952437,1.529135771,0.6708381879,1.799485295,2.454878287E0,1
11.71953637,0.3871602282,0.1640050435,0.7677388304,8.753362830E-1,1
11.72954837,-0.5452481818,0.1237826318,0.08139791965,5.650162308E-1,1
11.73956037,-1.0900587,0.2237419528,-0.3614760411,1.170022802E0,1
11.74957238,-1.337458779,0.2103149915,-0.6615867233,1.506892622E0,1
11.75958437,-1.433478246,0.06920238197,-0.929454689,1.709834750E0,1
11.76959638,-1.489899053,-0.1355185783,-1.127402819,1.873286308E0,1
11.77960837,-1.485260311,-0.241236822,-1.252730286,1.957939367E0,1
11.78962037,-1.474926673,-0.2254300439,-1.29765152,1.977404072E0,1
11.79963237,-1.391462347,-0.232868287,-1.274107706,1.900985415E0,1
11.80964437,-1.373953883,-0.4048232049,-1.442550201,2.032875349E0,1
11.81965637,-1.467876247,-0.5348272741,-1.739242017,2.337875891E0,1
11.82966837,-1.558318639,-0.4850019801,-1.811918814,2.438572060E0,1
11.83968037,-1.502424666,-0.3582922322,-1.63675319,2.250469775E0,1
11.84969237,-1.471499328,-0.4443556452,-1.600072437,2.218782101E0,1
11.85970437,-1.560007169,-0.7309674454,-1.855816786,2.532191090E0,1
11.86971637,-1.778512794,-0.9691321403,-2.26173225,3.036076026E0,1
11.87972838,-2.01496981,-0.9877145916,-2.572631046,3.413812230E0,1
11.88974037,-1.758281136,-0.6673655266,-2.224501274,2.912959872E0,1
11.89975238,-1.268730168,-0.5016840863,-1.59254824,2.097039117E0,1
11.90976437,-1.055556911,-0.7758927727,-1.300391525,1.845867846E0,1
11.91977637,-1.103150323,-1.125214207,-1.271444884,2.024751772E0,1
11.92978837,-1.393014929,-1.320466186,-1.307585354,2.322477341E0,1
11.93980037,-1.71877837,-1.47941865,-1.312937896,2.620435946E0,1
11.94981237,-1.907413786,-1.610892125,-1.312796393,2.820750815E0,1
11.95982437,-1.987496667,-1.778594363,-1.366732864,2.996915019E0,1
11.96983637,-1.9718349,-1.943647812,-1.491952157,3.145126536E0,1
11.97984837,-1.882772011,-1.924691139,-1.580276688,3.121945041E0,1
11.98986037,-1.769370526,-1.768789167,-1.611274533,2.975818004E0,1
11.99987237,-1.792693315,-1.720563671,-1.757609875,3.043563888E0,1
12.00988438,-1.869506579,-1.732455738,-1.930298034,3.197265744E0,1
12.01989637,-1.886603692,-1.697742573,-1.949749382,3.200488398E0,1
12.02990837,-1.866841711,-1.652897353,-1.930161794,3.153203479E0,1
12.03992037,-1.858783078,-1.533090827,-1.967803829,3.110899215E0,1
12.04993237,-1.806480465,-1.315470325,-1.954994334,2.969147469E0,1
12.05994437,-1.84355839,-1.116970802,-1.928066152,2.892018395E0,1
12.06995637,-1.844115484,-0.8643646538,-1.626474954,2.606397696E0,1
12.07996837,-1.537265447,-0.479714343,-0.8454728848,1.818828003E0,1
12.08998037,-0.8172293714,-0.02207382381,0.204675352,8.427592176E-1,1
12.09999237,-0.0382308501,0.3286176127,1.165564088,1.211606692E0,1
12.11000437,0.5865011653,0.6086805314,1.77411715,1.965188863E0,1
12.12001638,0.9671607515,0.9908820283,2.04096653,2.466331586E0,1
12.13002837,1.124754615,1.587625469,2.310959959,3.020954072E0,1
12.14004038,1.306202488,2.321671473,2.817956825,3.877783393E0,1
12.15005237,1.812852907,3.253055744,3.82829254,5.340845542E0,1
12.16006437,2.725155081,4.234588074,5.150022309,7.202842228E0,1
12.17007637,3.700299329,4.760100734,6.187190312,8.638987098E0,1
12.18008837,4.296465064,4.962133729,6.579599878,9.293735403E0,1
12.19010037,4.188233103,5.208866934,6.752831243,9.501279969E0,1
12.20011237,3.758594314,5.520447514,6.782399443,9.518577319E0,1
12.21012437,3.574090102,5.73878664,6.844173523,9.620317217E0,1
12.22013637,3.666836006,5.967934343,6.941761798,9.861540624E0,1
12.23014837,3.843218728,6.360125223,7.043481131,1.023875722E1,1
12.24016037,4.002238143,6.771943452,7.206299774,1.066807784E1,1
12.25017238,4.262509991,7.143704161,7.640733279,1.129523376E1,1
12.26018437,4.418403484,7.077742306,7.983649088,1.154795992E1,1
12.27019638,4.217841356,6.526705965,8.130535823,1.124694133E1,1
12.28020837,3.994881761,5.953331507,8.19411026,1.088782252E1,1
12.29022037,3.785859881,5.316446931,8.067574174,1.037704660E1,1
12.30023237,3.681667761,4.234657071,7.916264021,9.703310469E0,1
12.31024437,3.737129771,2.975898891,8.083268101,9.389426837E0,1
12.32025637,3.935522289,1.795448377,8.705371501,9.720877714E0,1
12.33026837,3.562122898,-0.05490243137,8.897981708,9.584665477E0,1
12.34028037,2.148940338,-2.179305221,7.969051514,8.536574129E0,1
12.35029237,0.1776547837,-3.9906896,5.756144099,7.006451284E0,1
12.36030437,-1.924660733,-5.374268292,2.584973933,6.266511697E0,1
12.37031637,-3.691358936,-6.123608859,-0.5236836505,7.169306857E0,1
12.38032838,-4.731834708,-6.403924962,-3.089434862,8.540791672E0,1
12.39034037,-5.050067081,-6.451034809,-5.054348413,9.626290330E0,1
12.40035237,-4.825729297,-6.414022518,-6.40029618,1.026601867E1,1
12.41036437,-4.230487129,-6.227284085,-7.151547616,1.038367573E1,1
12.42037637,-3.478298677,-6.165838035,-7.13898195,1.005391385E1,1
12.43038837,-2.905269789,-6.409507298,-7.159502168,1.003896646E1,1
12.44040037,-2.329705402,-6.664233647,-7.654563698,1.041306308E1,1
12.45041237,-1.915373601,-6.906766797,-8.098073836,1.081438318E1,1
12.46042437,-1.455179456,-7.075127431,-8.643636013,1.126443159E1,1
12.47043637,-1.051195765,-7.084381235,-9.125338994,1.160022766E1,1
12.48044829,-0.8830951859,-6.956957542,-9.489038731,1.179919368E1,1
12.49046029,-0.626721092,-6.754877184,-9.831192648,1.194460104E1,1
12.50047229,-0.1086820512,-6.473892159,-10.20554777,1.208620274E1,1
12.51048429,0.3680412948,-6.071503735,-10.37387741,1.202563697E1,1
12.52049629,0.5832533294,-5.899024907,-10.32678861,1.190719288E1,1
12.53050829,1.594428997,-5.814242034,-9.960444181,1.164294046E1,1
12.54052029,2.714203539,-5.277674628,-7.924218573,9.900201530E0,1
12.55053229,1.466422044,-4.934995632,-6.020336505,7.921428352E0,1
12.56054429,0.8560007966,-4.953757592,-6.14396477,7.938561252E0,1
12.57055629,0.796261256,-4.29519388,-6.478537188,7.813716564E0,1
12.58056829,0.5147876966,-2.613555708,-5.866090465,6.442569142E0,1
12.59058029,-0.1588695802,-0.3441565883,-5.067200593,5.081358593E0,1
12.60059229,-1.276077194,1.617297165,-4.855401578,5.274367034E0,1
12.61060429,-2.688003627,2.659061664,-4.567971168,5.929783556E0,1
12.62061629,-5.350518072,2.609487215,-0.4585181862,5.970569997E0,1
12.63062829,-5.754570614,2.562507176,2.869476058,6.922096418E0,1
12.64064029,-0.6130311522,3.391250008,3.734041856,5.081284522E0,1
12.65065229,1.285585206,4.043140878,4.927210649,6.502085993E0,1
12.66066429,1.747867244,4.017372199,4.756867223,6.467001242E0,1
12.67067629,1.309838287,3.575189964,4.541268688,5.926278842E0,1
12.68068829,0.4644161265,2.713020939,4.679899739,5.429330209E0,1
12.69070029,1.233452016,2.066732871,6.215279751,6.665019957E0,1
12.70071229,3.16083989,1.782238932,8.982871,9.688098669E0,1
12.71072429,5.085560265,1.636336284,11.54426779,1.272048106E1,1
12.72073629,6.439496498,1.7012357,12.4782225,1.414451677E1,1
12.73074829,6.969819662,2.115165358,11.365909,1.349948881E1,1
12.74076029,6.469980957,2.733436493,9.091614593,1.148868071E1,1
12.75077229,5.240316183,3.106887047,6.253942126,8.730718924E0,1
12.76078429,3.533030369,2.796036783,3.467609966,5.685459011E0,1
12.77079629,1.626802837,2.111595633,1.181457404,2.915675768E0,1
12.78080829,-0.2509417382,1.045970986,-0.5423427004,1.204642131E0,1
12.79082029,-1.72506705,0.3010105687,-1.919674813,2.598387014E0,1
12.80083229,-2.647751979,-0.5482396173,-2.894080557,3.960664021E0,1
12.81084429,-3.043780387,-1.501065043,-3.427394571,4.823362816E0,1
12.82085629,-3.173156465,-2.027741883,-3.584325069,5.198850382E0,1
12.83086829,-3.19769606,-2.312925208,-3.778226341,5.463504131E0,1
12.84088029,-3.284967215,-2.42944209,-3.944076181,5.678814612E0,1
12.85089229,-3.388613498,-2.311862184,-4.080818582,5.786232669E0,1
12.86090429,-3.410855722,-2.009345373,-4.328033012,5.865430533E0,1
12.87091629,-3.259276012,-1.548283648,-4.448545296,5.727968019E0,1
12.88092829,-2.978149484,-1.095049006,-4.292414698,5.337914444E0,1
12.89094029,-2.676658859,-0.7745677936,-3.97130491,4.851362758E0,1
12.90095229,-2.371041708,-0.4587807262,-3.506332567,4.257544669E0,1
12.91096429,-1.960906746,-0.05189696252,-2.88663939,3.490062396E0,1
12.92097629,-1.326415143,0.3573157471,-1.946620536,2.382516146E0,1
12.93098829,-0.4202671632,0.6853767049,-0.6392328179,1.027124292E0,1
12.94100029,0.5562023556,0.9500532603,0.5813371968,1.244955901E0,1
12.95101229,1.476629528,1.160364159,1.703584526,2.535563050E0,1
12.96102429,2.107741441,1.234889846,2.642071994,3.598342859E0,1
12.97103629,2.367648422,1.119647657,3.419133625,4.306953062E0,1
12.98104829,2.411187083,0.8644260496,3.793379985,4.577202995E0,1
12.99106029,2.140019825,0.4781297475,3.779741355,4.369752581E0,1
13.00107229,1.657487709,0.1155678785,3.471812945,3.848909789E0,1
13.01108429,1.138839388,-0.08532900274,2.915187836,3.130903433E0,1
13.02109629,0.7678586984,-0.3143018746,2.278135445,2.424519283E0,1
13.03110829,0.6063325819,-0.4853925741,1.761371389,1.925012811E0,1
13.04112029,0.644838105,-0.4261544323,1.411017922,1.608849078E0,1
13.05113229,0.7562445201,-0.3764870131,1.000190211,1.309209190E0,1
13.06114429,0.8347109382,-0.43119941,0.5757156837,1.101872874E0,1
13.07115629,0.9290282808,-0.4737209469,0.1695587289,1.056529812E0,1
13.08116829,1.117910303,-0.3346665573,-0.1588466299,1.177691557E0,1
13.09117929,1.311172037,-0.1589015937,-0.3527613509,1.367063421E0,1
13.10119129,1.38406255,-0.1037904167,-0.5291817874,1.485407337E0,1
13.11120329,1.480610605,-0.0736363256,-0.6338101101,1.612248532E0,1
13.12121529,1.565678237,-0.08726793945,-0.7819270992,1.752248277E0,1
13.13122729,1.538833232,-0.1371224695,-0.976386196,1.827605070E0,1
13.14123929,1.578128421,-0.1117876536,-1.122702827,1.939960678E0,1
13.15125129,1.548842788,-0.09946990907,-1.268964495,2.004764109E0,1
13.16126329,1.392123667,-0.08078513145,-1.41671311,1.987865835E0,1
13.17127529,1.227960164,0.0333963722,-1.580792997,2.001976020E0,1
13.18128729,1.087688677,0.2681673431,-1.637552505,1.984076255E0,1
13.19129929,0.9329826066,0.2747934079,-1.527627774,1.810970617E0,1
13.20131129,0.7239136568,0.1251181358,-1.401807972,1.582646872E0,1
13.21132329,0.4924962102,0.06000295758,-1.24842615,1.343398945E0,1
13.22133529,0.3399028851,0.1483339208,-1.040738313,1.104840784E0,1
13.23134729,0.4033147694,0.2312725818,-0.7836660612,9.111982801E-1,1
13.24135929,0.5825415771,0.2665119964,-0.5086633229,8.179985998E-1,1
13.25137129,0.7756273091,0.359689132,-0.2806300986,8.998484575E-1,1
13.26138329,0.8826062125,0.4804224408,-0.210217343,1.026640531E0,1
13.27139529,0.8669155017,0.5185193896,-0.3335842377,1.063806039E0,1
13.28140729,0.7805649903,0.5803905326,-0.5314557695,1.108413330E0,1
13.29141929,0.6734920929,0.7138158077,-0.6700037903,1.188288553E0,1
13.30143129,0.6011963877,0.8301292062,-0.7199395967,1.252543260E0,1
13.31144329,0.5446409485,0.9234466749,-0.738362419,1.301755194E0,1
13.32145529,0.6224920933,0.9756465232,-0.6105838001,1.308508740E0,1
13.33146729,0.8095133856,0.9943780786,-0.435779534,1.354253849E0,1
13.34147929,0.8648645908,1.012648873,-0.4312081808,1.399781767E0,1
13.35149129,0.8037458383,1.048281221,-0.5178376043,1.418822284E0,1
13.36150329,0.7670229851,1.098850865,-0.601870864,1.469028938E0,1
13.37151529,0.8844787833,1.127344347,-0.5779931742,1.545083850E0,1
13.38152729,1.140344754,1.099929092,-0.3940081948,1.632627521E0,1
13.39153929,1.462147876,1.056584852,-0.101933341,1.806831028E0,1
13.40155129,1.785237969,0.989316144,0.2560109818,2.057027628E0,1
13.41156329,1.997391033,0.8476369393,0.5721465433,2.243972145E0,1
13.42157529,2.069569209,0.6386288005,0.7275748909,2.284803860E0,1
13.43158729,1.96368622,0.3777704769,0.6897317111,2.115302328E0,1
13.44159929,1.612193569,0.08800585806,0.443650471,1.674436883E0,1
13.45161129,1.175682548,-0.2321870863,0.1755269819,1.211177121E0,1
13.46162329,0.7519308829,-0.5405885357,-0.06593554258,9.284306724E-1,1
13.47163529,0.4037208585,-0.8291205615,-0.2837501729,9.648552211E-1,1
13.48164704,0.07389754996,-1.101905451,-0.6253655612,1.269148752E0,1
13.49165904,-0.354455874,-1.256953729,-1.060039971,1.682039353E0,1
13.50167104,-0.8355206314,-1.342010252,-1.352384967,2.080392112E0,1
13.51168304,-1.228650136,-1.400435046,-1.584027677,2.445392230E0,1
13.52169504,-1.452943335,-1.401594549,-1.801996089,2.706049061E0,1
13.53170704,-1.523275253,-1.297487213,-1.933369576,2.782401567E0,1
13.54171904,-1.603886283,-1.173363689,-2.027240776,2.838826997E0,1
13.55173104,-1.644936222,-1.051697164,-1.987752775,2.786223824E0,1
13.56174204,-1.582244276,-0.8510534674,-1.627779468,2.424346294E0,1
13.57175404,-1.352007675,-0.6791874272,-1.1731298,1.914537501E0,1
13.58176604,-1.098648552,-0.6210590869,-0.63887146,1.414531644E0,1
13.59177804,-0.7944151439,-0.5366247082,-0.0166101855,9.588208365E-1,1
13.60179004,-0.4332953444,-0.3890819156,0.5807717711,8.224508755E-1,1
13.61180204,0.1248608583,-0.2315175802,1.213777889,1.241953054E0,1
13.62181404,0.7574825218,-0.1174699777,1.813188245,1.968560534E0,1
13.63182604,1.118418719,-0.1153994787,2.102963389,2.384666116E0,1
13.64183804,1.124425271,-0.171228109,2.141953207,2.425204073E0,1
13.65185004,0.8088060187,-0.2122779018,2.072779477,2.235093699E0,1
13.66186204,0.3477780613,-0.2697811747,1.992831666,2.040859993E0,1
13.67187404,-0.1783371538,-0.4916502643,1.761578965,1.837575733E0,1
13.68188604,-0.7327850524,-0.7827936566,1.341409743,1.717300189E0,1
13.69189804,-1.2334488,-0.9316795546,0.8912554139,1.784309095E0,1
13.70191004,-1.570285843,-0.8833809686,0.5608228254,1.886976896E0,1
13.71192204,-1.720370421,-0.8442847306,0.2262667805,1.929685919E0,1
13.72193404,-1.825866031,-0.8628619194,-0.1658808303,2.026285742E0,1
13.73194604,-1.98007275,-0.8600727975,-0.4818608558,2.211922963E0,1
13.74195804,-2.13535404,-0.7643825287,-0.6758030587,2.366585578E0,1
13.75197004,-2.152037169,-0.69868029,-0.7301552671,2.377508116E0,1
13.76198204,-2.112498297,-0.6364852113,-0.8628993416,2.369041526E0,1
13.77199404,-2.042174711,-0.5274352241,-0.9158651751,2.299450910E0,1
13.78200604,-1.787258913,-0.198331123,-0.8030653685,1.969401849E0,1
13.79201804,-1.460906219,0.04490486205,-0.6124701118,1.584734383E0,1
13.80203004,-1.346425338,0.09655214846,-0.4138220698,1.411889590E0,1
13.81204204,-1.430223248,0.085338943,-0.143702926,1.439955487E0,1
13.82205404,-1.638076854,0.0504971391,0.1829582083,1.649035914E0,1
13.83206604,-1.751258483,-0.004012359381,0.4434510809,1.806535700E0,1
13.84207804,-1.681829376,-0.007960984111,0.690067926,1.817912861E0,1
13.85209004,-1.655509742,0.03330281675,0.6514353722,1.779379001E0,1
13.86210204,-1.726703686,0.1716672349,0.4849657273,1.801712245E0,1
13.87211404,-1.73439102,0.4112200588,0.3788785243,1.822296102E0,1
13.88212604,-1.65201033,0.5769681573,0.3992028612,1.794824033E0,1
13.89213704,-1.461778332,0.643203662,0.4436165571,1.657498866E0,1
13.90214904,-1.346074505,0.646181649,0.4786191595,1.567974361E0,1
13.91216104,-1.387623796,0.5985426289,0.5337613267,1.602702166E0,1
13.92217304,-1.478634831,0.4902539492,0.5475952542,1.651233012E0,1
13.93218504,-1.563253836,0.3079792804,0.5844543475,1.697115399E0,1
13.94219704,-1.553043866,0.1918529928,0.7552433306,1.737568793E0,1
13.95220904,-1.478936109,0.1252204621,0.953535862,1.764132313E0,1
13.96222104,-1.372906208,0.1051393694,1.162300172,1.801906611E0,1
13.97223304,-1.335002656,0.0634551537,1.401509764,1.936617739E0,1
13.98224504,-1.330693551,-0.03095691383,1.496474394,2.002782881E0,1
13.99225704,-1.343085262,-0.09562302589,1.48465951,2.004304280E0,1
14.00226904,-1.303038706,-0.125237419,1.360466988,1.887979000E0,1
14.01228104,-1.169790747,-0.1253303897,1.102373228,1.612248378E0,1
14.02229304,-1.05007003,-0.0828848666,0.745559172,1.290494265E0,1
14.03230504,-1.025310726,-0.04178654194,0.3837913549,1.095583865E0,1
14.04231704,-0.8672274506,0.0651116699,0.09838232696,8.752154380E-1,1
14.05232904,-0.6871598133,0.1718584388,-0.1783956259,7.304443384E-1,1
14.06234104,-0.5672059384,0.1657106763,-0.4892482281,7.671678001E-1,1
14.07235304,-0.4775827405,0.1309407932,-0.7028750825,8.598047144E-1,1
14.08236504,-0.3943489413,0.1180044132,-0.7705437398,8.735981822E-1,1
14.09237704,-0.09538124353,0.09151594162,-0.6427247751,6.561767183E-1,1
14.10238904,0.251773797,0.01744926095,-0.618589223,6.680921706E-1,1
14.11240104,0.4868719196,-0.03792971849,-0.7414538419,8.878269704E-1,1
14.12241304,0.6537087697,-0.01434731305,-0.9717891151,1.171287789E0,1
14.13242504,0.8031603858,0.0043707937,-1.186579565,1.432849181E0,1
14.14243704,0.9729022788,0.01497939706,-1.335223973,1.652145964E0,1
14.15244904,0.9986548783,-0.09816597998,-1.458653433,1.770485234E0,1
14.16246104,0.9354404837,-0.3028857708,-1.467702584,1.766618115E0,1
14.17247204,0.8860557774,-0.5086007577,-1.470973517,1.790958586E0,1
14.18248504,0.9001447897,-0.6849972206,-1.454815906,1.842816093E0,1
14.19249604,0.9717518391,-0.7854763591,-1.42716033,1.896855649E0,1
14.20250804,0.9963187695,-0.9409070456,-1.418215259,1.972128718E0,1
14.21252004,0.9922081769,-1.070146299,-1.4039118,2.025008274E0,1
14.22253204,0.8939454255,-1.216040177,-1.456330919,2.097329703E0,1
14.23254404,0.7032522279,-1.350136127,-1.53893512,2.164659918E0,1
14.24255604,0.5038314763,-1.455640363,-1.638106821,2.248583772E0,1
14.25256804,0.3320157221,-1.553436799,-1.698341328,2.325459867E0,1
14.26258004,0.1706045035,-1.614223284,-1.715614588,2.361812041E0,1
14.27259204,0.001229377091,-1.65841537,-1.752281308,2.412640220E0,1
14.28260404,-0.1523199677,-1.68243924,-1.769997786,2.446772432E0,1
14.29261604,-0.3280285057,-1.723828171,-1.962056601,2.632271333E0,1
14.30262804,-0.4934953532,-1.694184542,-2.208888624,2.827187273E0,1
14.31264004,-0.6196010837,-1.634238303,-2.394764593,2.964715465E0,1
14.32265204,-0.8209411839,-1.650708155,-2.646431093,3.225271984E0,1
14.33266404,-0.9720542863,-1.682352117,-2.866199278,3.462700750E0,1
14.34267604,-1.074173276,-1.649676121,-3.055853718,3.635040781E0,1
14.35268804,-1.17873114,-1.49340636,-3.126508548,3.659880511E0,1
14.36270004,-1.269395142,-1.307474842,-2.956711838,3.473182889E0,1
14.37271204,-1.258409101,-1.118002836,-2.71280927,3.192625556E0,1
14.38272404,-1.22412366,-0.918618629,-2.391270881,2.839104674E0,1
14.39273604,-1.270340637,-0.7630423468,-1.969679031,2.464880209E0,1
14.40274804,-1.19393507,-0.6110416371,-1.55822333,2.055945714E0,1
14.41276004,-0.9385009164,-0.3623548776,-1.207813144,1.571908909E0,1
14.42277104,-0.5437319988,-0.02750062466,-0.7328286141,9.129285561E-1,1
14.43278304,-0.2339678559,0.3523537999,-0.3104450512,5.246620700E-1,1
14.44279504,0.04195786536,0.8137681121,0.194120543,8.376525460E-1,1
14.45280704,0.2927504995,1.259199645,0.7187064189,1.479129987E0,1
14.46281904,0.5014654005,1.635320622,1.37065927,2.191905089E0,1
14.47283142,0.9327808776,2.088786814,2.192921047,3.168913574E0,1
14.48284342,1.389977593,2.492809535,3.343393471,4.395954617E0,1
14.49285542,2.131237015,2.791849008,4.671458114,5.844579797E0,1
14.50286742,3.106547616,2.990694686,5.75663702,7.192618617E0,1
14.51287942,4.182436173,3.079889867,6.564201236,8.370617170E0,1
14.52289142,5.533848163,3.128034087,7.131481726,9.553329490E0,1
14.53290342,6.881100444,3.423181068,7.310806475,1.060733724E1,1
14.54291542,8.077340194,4.009393673,6.662488253,1.121193168E1,1
14.55292742,9.018405699,4.480662298,5.526866587,1.148713325E1,1
14.56293942,9.387542177,4.956111097,4.200704629,1.141643135E1,1
14.57295142,9.15347872,5.465465561,3.072362747,1.109490420E1,1
14.58296342,8.611917207,5.715684291,2.611992162,1.066098813E1,1
14.59297542,8.257354914,5.506669135,3.152025797,1.041357680E1,1
14.60298742,8.010207142,4.742526342,4.438023816,1.031266357E1,1
14.61299942,7.660503885,3.863508566,6.313312415,1.065213274E1,1
14.62301142,7.336676311,3.096767271,8.673152173,1.177456392E1,1
14.63302242,7.001600448,2.110336727,10.65777961,1.292533157E1,1
14.64303442,6.367472835,1.148242296,11.16405727,1.290346254E1,1
14.65304642,5.169175449,0.5508872366,9.683070397,1.099025495E1,1
14.66305842,3.184470243,0.2255809021,6.452923459,7.199441551E0,1
14.67307042,0.7872147363,-0.2974835283,2.776193672,2.900940330E0,1
14.68308242,-1.72098584,-1.160234351,-0.5901062661,2.157814036E0,1
14.69309442,-4.413379557,-2.342460664,-3.399601586,6.043370915E0,1
14.70310642,-6.96416365,-3.689907657,-5.479057998,9.598701496E0,1
14.71311842,-8.90101115,-4.949701964,-6.951913149,1.233112507E1,1
14.72313042,-10.0880047,-5.548575545,-7.844953133,1.393189933E1,1
14.73314242,-10.33499343,-5.227886757,-8.062918621,1.411217722E1,1
14.74315442,-8.601365322,-4.259283205,-7.342697189,1.208470855E1,1
14.75316642,-7.416096117,-3.955581747,-6.901536462,1.087549144E1,1
14.76317842,-6.745645015,-4.125315308,-6.778800482,1.041508949E1,1
14.77319042,-5.682711257,-3.847788327,-6.665827013,9.567232202E0,1
14.78320242,-4.857975522,-3.580556538,-6.942206186,9.198616093E0,1
14.79321442,-4.156634164,-3.554463923,-7.631148523,9.388623389E0,1
14.80322642,-3.66848609,-3.696500393,-8.150564876,9.672311675E0,1
14.81323842,-3.178896969,-3.842644531,-8.364521513,9.738404545E0,1
14.82325042,-2.741690422,-3.780942373,-8.293276699,9.517921517E0,1
14.83326142,-2.418187077,-3.663163077,-7.976197981,9.104181825E0,1
14.84327342,-2.095381596,-3.388909367,-7.332186819,8.344836384E0,1
14.85328542,-1.756454465,-2.966529897,-6.448612892,7.312321119E0,1
14.86329742,-1.386475696,-2.319184068,-5.403231305,6.041178539E0,1
14.87330942,-0.9734736979,-1.641744958,-4.381832074,4.779480084E0,1
14.88332142,-0.5011832723,-0.7803869426,-3.395118526,3.519519606E0,1
14.89333342,0.06803293884,0.3852584213,-2.243952622,2.277800672E0,1
14.90334542,0.7633516645,1.557632176,-0.9791618693,1.991904046E0,1
14.91335742,1.789137477,2.394393879,0.3709350818,3.011930908E0,1
14.92336942,3.129401751,2.672317302,2.080952715,4.611377156E0,1
14.93338142,4.59280517,2.70233983,3.632612545,6.449214974E0,1
14.94339342,5.871205609,2.453014555,4.712624266,7.918154026E0,1
14.95340542,6.775134278,2.431124918,5.396336854,8.996291697E0,1
14.96341742,7.257161779,2.851045634,6.318637474,1.003593732E1,1
14.97342942,7.589512255,3.155929399,7.569845145,1.117421774E1,1
14.98344142,7.726508424,2.889536685,8.659469104,1.195971404E1,1
14.99345342,7.306930355,1.999730796,9.519140782,1.216569750E1,1
15.00346442,6.177948203,0.9523079467,9.839432545,1.165711659E1,1
15.01347642,4.557308477,0.3771869248,8.747780771,9.870916825E0,1
15.02348842,2.823763111,0.1407927668,7.264067341,7.794878770E0,1
15.03350042,1.370834979,0.1231903088,5.477497376,5.647773180E0,1
15.04351242,0.5541821426,-0.1595693457,3.278506919,3.328841817E0,1
15.05352442,-0.005822657347,-0.446903277,1.182632695,1.264269170E0,1
15.06353642,-0.3814679638,-0.47958395,-0.550632298,8.238413076E-1,1
15.07354842,-0.5907149613,-0.4414636123,-2.070140628,2.197570592E0,1
15.08356042,-0.6999374413,-0.3415189093,-3.322845771,3.412894901E0,1
15.09357242,-0.8293488953,-0.2826199061,-4.256863627,4.346099578E0,1
15.10358442,-1.055736128,-0.2980811137,-4.847993156,4.970560206E0,1
15.11359642,-1.33975615,-0.3494600129,-5.017439033,5.204974860E0,1
15.12360842,-1.635765011,-0.3997337884,-4.876732221,5.159266559E0,1
15.13362042,-1.827075382,-0.3946361858,-4.469112877,4.844265897E0,1
15.14363242,-1.794053816,-0.3732827389,-3.958801224,4.362347560E0,1
15.15364442,-1.607706854,-0.2897049773,-3.389926783,3.763011280E0,1
15.16365642,-1.28498879,-0.168867588,-2.700492695,2.995392002E0,1
15.17366842,-0.9166986957,-0.06893516421,-1.898152381,2.109045049E0,1
15.18367942,-0.6335273972,-0.07092964947,-1.030372369,1.211633276E0,1
15.19369142,-0.3349747056,-0.07780129731,-0.2678416532,4.358901770E-1,1
15.20370342,-0.07205582321,-0.08721472979,0.2681837153,2.910686447E-1,1
15.21371542,0.1200263804,-0.1420282835,0.5801092815,6.091839983E-1,1
15.22372742,0.1765461516,-0.1317547256,0.6719883353,7.071747833E-1,1
15.23373942,0.04529779494,-0.1470218056,0.5705718881,5.909480358E-1,1
15.24375142,-0.2902616322,-0.2107745826,0.3559603626,5.053568240E-1,1
15.25376342,-0.6488178661,-0.2951844031,0.2347797418,7.504798348E-1,1
15.26377542,-0.7945576698,-0.359739418,0.2033825326,8.955996840E-1,1
15.27378742,-0.8057571343,-0.3891836572,0.2562787843,9.307992768E-1,1
15.28379942,-0.6742064765,-0.3726091397,0.3999746937,8.679698725E-1,1
15.29381142,-0.5224601206,-0.3171693492,0.5946524763,8.527441242E-1,1
15.30382342,-0.4016516751,-0.2281384742,0.738820256,8.713361017E-1,1
15.31383542,-0.3885378322,-0.2335565042,0.7854330897,9.068712291E-1,1
15.32384742,-0.584985567,-0.3582419461,0.7054057574,9.839424212E-1,1
15.33385942,-0.9274169344,-0.4359058338,0.5213552892,1.149751018E0,1
15.34387042,-1.329743378,-0.356490705,0.4085683465,1.436047063E0,1
15.35388242,-1.646322451,-0.1816034085,0.4935868621,1.728289733E0,1
15.36389442,-1.81146127,-0.1500530022,0.6757019019,1.939195940E0,1
15.37390642,-1.847067597,-0.2281174242,0.712231797,1.992729384E0,1
15.38391842,-1.811252524,-0.2007460231,0.6240440905,1.926230957E0,1
15.39393042,-1.751672028,0.01278025925,0.6385089326,1.864460213E0,1
15.40394242,-1.692202336,0.2947142869,0.634664973,1.831175820E0,1
15.41395442,-1.610820789,0.4681122977,0.4655652505,1.740868674E0,1
15.42396642,-1.535188516,0.569761464,0.2560027957,1.657398364E0,1
15.43397842,-1.430974176,0.7836064196,0.2056547606,1.644390463E0,1
15.44399042,-1.267212085,1.045152376,0.3480835783,1.679086696E0,1
15.45400242,-1.091439812,1.109602726,0.5430654162,1.648447487E0,1
15.46401442,-1.044448663,0.9915164512,0.5880755281,1.555574077E0,1
15.47402642,-1.033248029,0.8852982706,0.6841651618,1.522969628E0,1
15.48403842,-1.037357745,0.8585045743,0.8032390308,1.567907566E0,1
15.49405042,-0.9660313618,0.8411617327,0.8663994849,1.546420939E0,1
15.50406142,-0.8417490855,0.8410494661,0.9393873543,1.516032430E0,1
15.51407342,-0.7695108292,0.7840584093,0.989465248,1.478491117E0,1
15.52408542,-0.7350289214,0.6406314719,0.9234227014,1.342901963E0,1
15.53409742,-0.7652265742,0.4865111464,0.7037784773,1.147854063E0,1
15.54410942,-0.9281899363,0.3034482729,0.2749372494,1.014498843E0,1
15.55412142,-1.162648374,0.1215601051,-0.2610202914,1.197772805E0,1
15.56413342,-1.338452514,0.1045640033,-0.6882751697,1.508678717E0,1
15.57414542,-1.444274253,0.1152831191,-0.8788663334,1.694586778E0,1
15.58415742,-1.422423208,0.09849810183,-0.8674929142,1.668991796E0,1
15.59416942,-1.190166247,0.08953373551,-0.8105410337,1.442736550E0,1
15.60418142,-0.8150512835,0.1147732419,-0.651507293,1.049734845E0,1
15.61419342,-0.5279249284,0.09089496732,-0.589579432,7.965993546E-1,1
15.62420542,-0.3809855685,0.1027677387,-0.7163441437,8.178387028E-1,1
15.63421742,-0.3662584788,0.1860718507,-0.74708588,8.525874260E-1,1
15.64422842,-0.3801540944,0.3035073298,-0.5243648511,7.152568293E-1,1
15.65424042,-0.2042894357,0.4174792108,-0.1554564142,4.900915850E-1,1
15.66425242,0.1242106479,0.502433407,0.1979779512,5.541325497E-1,1
15.67426442,0.5191362709,0.569363561,0.5775446928,9.629305294E-1,1
15.68427642,0.7845527914,0.6274448311,0.9978092247,1.415921378E0,1
15.69428842,0.877481128,0.6833243322,1.307093604,1.716216467E0,1
15.70430042,0.8354261988,0.7149940217,1.405275956,1.784363723E0,1
15.71431242,0.7648087907,0.6481802273,1.377198211,1.703450911E0,1
15.72432442,0.7052089986,0.5788831204,1.297783667,1.586400909E0,1
15.73433642,0.7802372539,0.631998058,1.265365534,1.615345676E0,1
15.74434842,0.9575789192,0.7504486138,1.23567922,1.734080057E0,1
15.75436042,1.2148988,0.8440619516,1.210973564,1.911773168E0,1
15.76437242,1.537348478,0.7913218206,1.180123655,2.093399724E0,1
15.77438442,1.776428262,0.5914242285,1.117397064,2.180379826E0,1
15.78439542,1.746659794,0.2640415478,0.9557963955,2.008503205E0,1
15.79440742,1.485300657,-0.05047375023,0.7187841868,1.650853218E0,1
15.80441942,1.052504665,-0.4282190841,0.4423436183,1.219346353E0,1
15.81443142,0.5234997556,-0.8599552685,0.1529959059,1.018323527E0,1
15.82444342,-0.005829381645,-1.295115582,-0.2076550931,1.311670306E0,1
15.83445542,-0.4769284371,-1.632447885,-0.5080674917,1.774958988E0,1
15.84446742,-0.8271977046,-1.823846549,-0.7386150187,2.134531430E0,1
15.85447942,-0.9956764528,-1.866319554,-0.9016424078,2.299451959E0,1
15.86449142,-0.9600517067,-1.807294836,-0.9841957372,2.270826976E0,1
15.87450342,-0.7297336829,-1.67699022,-1.127492867,2.148498920E0,1
15.88451542,-0.4099231464,-1.415353632,-1.288644469,1.957515634E0,1
15.89452742,-0.08497641563,-1.078918877,-1.510838664,1.858472599E0,1
15.90453942,0.1822813931,-0.6943264532,-1.740817841,1.883019513E0,1
15.91455042,0.3935664377,-0.2988751656,-1.874293987,1.938349518E0,1
15.92456242,0.5131335193,-0.05824528456,-2.016118788,2.081209621E0,1
15.93457442,0.5795289454,0.1060959738,-2.128377727,2.208416152E0,1
15.94458642,0.6185126245,0.2691648781,-2.09560993,2.201496895E0,1
15.95459842,0.625458532,0.3343356049,-1.903945802,2.031745134E0,1
15.96461042,0.5890169299,0.3381585145,-1.707840714,1.837936895E0,1
15.97462242,0.502003929,0.2909211981,-1.551210179,1.656169106E0,1
15.98463442,0.4061131006,0.2261521751,-1.373809165,1.450318682E0,1
15.99464642,0.3140983915,0.2414268565,-1.19223967,1.256336005E0,1
16.00465842,0.2022382325,0.1658878469,-1.024707001,1.057564901E0,1
16.01467042,0.0527857393,0.03823669732,-0.8848632377,8.872605755E-1,1
16.02468242,-0.1802240503,-0.1534315234,-0.8031957614,8.373442374E-1,1
16.03469442,-0.3852429262,-0.3504604715,-0.8053416896,9.590671985E-1,1
16.04470642,-0.5560158294,-0.5168839234,-0.8970476657,1.175166842E0,1
16.05471742,-0.747447238,-0.7355627722,-1.113266006,1.529408763E0,1
16.06472942,-1.004125972,-0.9729120728,-1.457803833,2.019905662E0,1
16.07474142,-1.252929676,-1.188272919,-1.824713691,2.512251054E0,1
16.08475342,-1.440426493,-1.334069733,-2.148205635,2.910216140E0,1
16.09476542,-1.570740757,-1.451874171,-2.409748667,3.222119454E0,1
16.10477742,-1.566361485,-1.494000144,-2.634261283,3.409524489E0,1
16.11478942,-1.348999429,-1.43616358,-2.892590686,3.499920880E0,1
16.12480142,-1.159001173,-1.247649055,-3.049841026,3.493056279E0,1
16.13481342,-1.062891659,-1.062486446,-3.079479393,3.426632378E0,1
16.14482542,-0.9020601913,-0.8374753556,-2.914073941,3.163369168E0,1
16.15483742,-0.5952918693,-0.6675675479,-2.494464297,2.649975655E0,1
16.16484942,-0.3686274782,-0.5870323849,-1.769554567,1.900477994E0,1
16.17486042,-0.2368359151,-0.5224487185,-0.6300737393,8.520779490E-1,1
16.18487242,0.3011783838,-0.2157830152,0.8615843028,9.378689884E-1,1
16.19488442,1.594008582,0.2119191751,2.566244717,3.028429468E0,1
16.20489642,3.501097555,0.6649819091,4.129663882,5.454723532E0,1
16.21490842,5.509674604,1.606909294,5.041838295,7.639293496E0,1
16.22492042,6.53556976,3.106917745,6.233020204,9.550767028E0,1
16.23493242,7.083863171,4.295609617,8.457907394,1.183932333E1,1
16.24494442,8.152766937,4.329595973,10.44139872,1.393685105E1,1
16.25495642,9.619289553,3.185154952,11.22422629,1.512148139E1,1
16.26496842,10.33506125,1.820460427,10.32063383,1.471879921E1,1
16.27498042,9.9286938,1.5404361,7.689689092,1.265239986E1,1
16.28499242,8.74835029,2.065932972,3.877070598,9.789452909E0,1
16.29500342,7.031994275,2.815296342,0.2546947736,7.578898760E0,1
16.30501542,4.931195526,3.762066391,-2.162787421,6.568674317E0,1
16.31502742,2.787020669,4.678262519,-3.257590844,6.345511998E0,1
16.32503942,1.006214597,5.016724504,-3.376758268,6.130455853E0,1
16.33505142,-0.2180014488,4.529748504,-2.816237159,5.338289789E0,1
16.34506342,-0.8150042135,3.860064556,-1.425471654,4.194794355E0,1
16.35507542,-0.6079613239,3.538570021,0.660333665,3.650634920E0,1
16.36508742,0.1799492311,3.318911179,2.691544116,4.276910435E0,1
16.37509942,1.108101745,3.070857673,4.546828805,5.597473404E0,1
16.38511142,1.757392359,2.526765486,5.63044475,6.416765525E0,1
16.39512342,1.394874344,1.651070098,5.126189643,5.563229922E0,1
16.40513542,-0.00586124897,0.8535461354,3.709762462,3.806693170E0,1
16.41514642,-1.714373809,0.4641531479,2.264098619,2.877613291E0,1
16.42515842,-3.217355568,-0.00894682467,0.8066193062,3.316940097E0,1
16.43517042,-4.228073691,-0.609834187,-0.5731931949,4.310110824E0,1
16.44518242,-4.756619886,-1.356651095,-1.780836185,5.257120167E0,1
16.45519442,-5.048517569,-2.01901082,-2.85021416,6.139027211E0,1
16.46520642,-5.107377981,-2.503930355,-3.719810318,6.796467160E0,1
16.47521879,-4.754416071,-2.824802161,-4.482258003,7.118610554E0,1
16.48523079,-3.899600505,-3.083951343,-5.134293884,7.146930367E0,1
16.49524279,-3.717248653,-3.523778905,-5.87357724,7.793193498E0,1
16.50525479,-3.396630908,-3.806758999,-6.760664173,8.469657352E0,1
16.51526679,-2.628406174,-3.632573369,-7.301690665,8.568476811E0,1
16.52527879,-1.408643952,-2.95389348,-7.19232259,7.901852233E0,1
16.53528979,0.2218264049,-2.233187313,-6.401403058,6.783383642E0,1
16.54530179,1.585447089,-2.152935448,-5.629787523,6.232437811E0,1
16.55531379,2.418301097,-2.626955187,-5.235695128,6.337316248E0,1
16.56532579,2.736325602,-3.215322492,-5.142700426,6.653806745E0,1
16.57533779,2.472151615,-3.701268212,-5.239389984,6.874745624E0,1
16.58534979,1.626297199,-4.007156528,-5.009076346,6.617627359E0,1
16.59536179,0.3237935136,-4.299737751,-3.778890585,5.733463266E0,1
16.60537379,-0.7540886517,-4.469035694,-2.396864328,5.126976530E0,1
16.61538579,-1.138731215,-4.606724174,-1.144460902,4.881434948E0,1
16.62539779,-1.370156702,-4.822349607,-0.08198439538,5.013891359E0,1
16.63540979,-1.601167036,-4.640021728,0.3161525184,4.918687826E0,1
16.64542079,-1.657722183,-3.690221652,0.3549066943,4.061002024E0,1
16.65543279,-1.951373884,-2.167709607,0.03783440888,2.916891568E0,1
16.66544479,-2.522987892,-0.5578974634,-0.5676167053,2.645544596E0,1
16.67545679,-3.078085709,0.9896552825,-1.120001414,3.421758667E0,1
16.68546879,-3.305822187,2.147365975,-1.323624267,4.158319632E0,1
16.69548079,-2.84521099,2.482409093,-0.8340643823,3.866942445E0,1
16.70549279,-1.650874801,2.185983911,0.04409385324,2.739682013E0,1
16.71550479,-0.1115118477,1.806036515,1.337165834,2.249936722E0,1
16.72551679,1.20576428,1.211309779,3.215111407,3.641164682E0,1
16.73552879,2.135581058,0.5253992236,5.003600428,5.465598599E0,1
16.74554079,2.474182353,-0.2208353019,6.218543082,6.696314256E0,1
16.75555179,2.108719095,-0.9275707161,6.665130025,7.052023958E0,1
16.76556379,1.259001132,-1.190070938,6.478477546,6.706118400E0,1
16.77557579,0.11779596,-0.9637035853,5.895231818,5.974642975E0,1
16.78558779,-1.083695175,-0.654344362,5.085733927,5.240920850E0,1
16.79559979,-2.102842059,-0.2738572687,4.279049717,4.775689375E0,1
16.80561179,-2.383728265,0.0393453294,3.891779269,4.563951619E0,1
16.81562379,-1.594262936,0.03436496347,3.843370171,4.161051493E0,1
16.82563579,-0.194958449,-0.1643909597,3.58876369,3.597812948E0,1
16.83564779,0.9903095859,-0.2403462911,3.134806917,3.296284851E0,1
16.84565979,1.642676273,-0.1690263399,2.582202353,3.065081440E0,1
16.85567179,1.701914561,-0.05228989542,1.835488356,2.503650317E0,1
16.86568279,1.171851891,-0.1393607837,0.9008045018,1.484623532E0,1
16.87569479,0.4204820484,-0.353763856,-0.1128810829,5.609778585E-1,1
16.88570679,-0.2374147895,-0.6557456473,-1.211586353,1.397966246E0,1
16.89571879,-0.7661199557,-0.92126771,-2.210921116,2.514725862E0,1
16.90573079,-1.168700607,-0.9960100365,-2.975598344,3.348444804E0,1
16.91574279,-1.38525392,-0.865534974,-3.380974696,3.754872715E0,1
16.92575479,-1.376542884,-0.5783902001,-3.332550395,3.651752684E0,1
16.93576679,-1.192719434,-0.3830955362,-3.070794523,3.316492250E0,1
16.94577879,-0.8279340152,-0.3515831369,-2.737260572,2.881263763E0,1
16.95579079,-0.3217656261,-0.3819755021,-2.324081696,2.377139906E0,1
16.96580179,0.1511339697,-0.3871666601,-2.023383368,2.065628174E0,1
16.97581379,0.4397430691,-0.3189504111,-1.629060009,1.717247752E0,1
16.98582579,0.4879650201,-0.240381082,-1.177159701,1.296764391E0,1
16.99583779,0.3047495708,-0.2892222896,-0.8806438869,9.757333085E-1,1
17.00584979,0.04420725267,-0.3725111988,-0.7556602371,8.436475972E-1,1
17.01586179,-0.1381316624,-0.4394317049,-0.5932280946,7.510660102E-1,1
17.02587379,-0.1820096803,-0.5223589638,-0.2475126386,6.060106575E-1,1
17.03588579,-0.1526337074,-0.5668591985,0.07845618546,5.922683282E-1,1
17.04589779,-0.1679766916,-0.5900083253,0.2382822239,6.581066867E-1,1
17.05590979,-0.2345254975,-0.5753908709,0.33970101,7.081480350E-1,1
17.06592179,-0.2339359155,-0.5224329311,0.4908211291,7.540341907E-1,1
17.07593279,-0.1645568745,-0.5049833778,0.5549194765,7.681294176E-1,1
17.08594479,0.01011495218,-0.5279863241,0.6796008253,8.606562336E-1,1
17.09595679,0.3218838861,-0.5908927166,0.8769075161,1.105319063E0,1
17.10596879,0.4610298577,-0.7200901625,1.009678488,1.323075591E0,1
17.11598079,0.2452238556,-0.7239031318,1.121567298,1.357233837E0,1
17.12599279,-0.1489035858,-0.6884558487,1.026805567,1.245180070E0,1
17.13600479,-0.6148869123,-0.7079376018,0.5683470225,1.096485249E0,1
17.14601679,-0.9923333073,-0.790002104,-0.04172806978,1.269082326E0,1
17.15602879,-1.171191302,-0.7046383104,-0.6017673683,1.493428331E0,1
17.16604079,-1.148103132,-0.4464884171,-0.9624142742,1.563244685E0,1
17.17605179,-1.021548336,-0.1855941331,-1.219534473,1.601646189E0,1
17.18606379,-0.9040003706,0.0192618978,-1.416434197,1.680438492E0,1
17.19607579,-0.7879276581,0.1713111395,-1.520146261,1.720762086E0,1
17.20608779,-0.6806319818,0.3612047303,-1.49639838,1.683133050E0,1
17.21609979,-0.5382296227,0.5169958976,-1.263700247,1.467621954E0,1
17.22611179,-0.2181326092,0.6019854695,-0.9610945576,1.154846782E0,1
17.23612379,0.09407384265,0.6667220405,-0.7234637135,9.883156945E-1,1
17.24613579,0.2958082644,0.755169071,-0.5990355492,1.008278952E0,1
17.25614779,0.4343523748,0.7892504445,-0.4181928635,9.932086995E-1,1
17.26615979,0.500442357,0.7632502154,-0.3314926887,9.710205181E-1,1
17.27617079,0.495782053,0.5780598325,-0.333501792,8.313702299E-1,1
17.28618279,0.4663414684,0.4223411706,-0.402115944,7.466884638E-1,1
17.29619479,0.2930945351,0.3308439401,-0.4551443428,6.344434506E-1,1
17.30620679,0.07158190638,0.1750501415,-0.4153844458,4.564107352E-1,1
17.31621879,-0.1087789688,-0.02700887382,-0.4363320959,4.504975485E-1,1
17.32623079,-0.2463782056,-0.2697019449,-0.542977708,6.544204693E-1,1
17.33624279,-0.3742256024,-0.5099073181,-0.5390407777,8.310326315E-1,1
17.34625479,-0.4812892174,-0.7391845375,-0.5347524297,1.031500486E0,1
17.35626679,-0.529012145,-0.9693508261,-0.6128571975,1.262968257E0,1
17.36627779,-0.5867463098,-1.212432152,-0.7383998412,1.536065520E0,1
17.37628979,-0.6067619137,-1.385669949,-0.9366900337,1.779221585E0,1
17.38630179,-0.6252063708,-1.537214284,-1.239620828,2.071369247E0,1
17.39631379,-0.6437411673,-1.647552997,-1.604519244,2.388161547E0,1
17.40632579,-0.6226229978,-1.696859936,-1.917422465,2.635052551E0,1
17.41633779,-0.5004830682,-1.662697286,-2.087057208,2.714931556E0,1
17.42634979,-0.3866504972,-1.552778403,-2.161464196,2.689339482E0,1
17.43636179,-0.4096798291,-1.565305477,-2.111734212,2.660345876E0,1
17.44637379,-0.5451957031,-1.672145217,-1.973391429,2.643403433E0,1
17.45638579,-0.6619211841,-1.763282259,-1.873570102,2.656608535E0,1
17.46639679,-0.7486941567,-1.727964492,-1.815217813,2.615610815E0,1
17.476408,-0.878455201,-1.673507618,-1.728809999,2.561463508E0,1
17.48642,-1.068178565,-1.505939866,-1.498013965,2.377584103E0,1
17.496432,-1.248648929,-1.167048696,-1.127902172,2.047752454E0,1
17.506444,-1.272085154,-0.7662030593,-0.5408920062,1.580453077E0,1
17.516456,-1.083907721,-0.441658617,0.1478328145,1.179734217E0,1
17.526468,-0.6969382583,-0.2194644222,0.8325879604,1.107741071E0,1
17.53648,-0.1439480706,-0.01217361063,1.639069272,1.645423144E0,1
17.546492,0.3616131583,0.2800216958,2.295587044,2.340704190E0,1
17.556504,0.5473672128,0.6820452538,2.861329132,2.991989471E0,1
17.566515,0.6502374239,1.189128074,3.562292175,3.811398671E0,1
17.576527,0.8436957698,1.73672099,4.141642488,4.569597887E0,1
17.586539,0.9406705257,2.292720155,4.662355753,5.280055673E0,1
17.596551,1.05272145,2.833340558,5.498971276,6.274928387E0,1
17.606563,1.230480022,3.227063408,6.572839912,7.424974332E0,1
17.616575,1.254826512,3.34396913,7.721252947,8.507318390E0,1
17.626587,1.393004258,3.410436769,8.925912688,9.656265175E0,1
17.636599,1.730576005,3.329033002,9.896996044,1.058432259E1,1
17.64661,1.72761322,3.297381147,10.13759026,1.079944934E1,1
17.656622,1.379679477,3.625987065,9.540453883,1.029910472E1,1
17.666634,0.9854754004,4.092798357,7.975557711,9.018407895E0,1
17.676646,0.9132828985,4.415733061,5.906285394,7.430813635E0,1
17.686658,1.350450561,4.504675058,3.82410418,6.061318906E0,1
17.69667,1.69624437,4.002053078,1.889014937,4.739414652E0,1
17.706682,1.367718851,3.190033869,0.914177084,3.589246534E0,1
17.716694,0.5033305161,2.292928315,1.127922637,2.604433018E0,1
17.726706,-0.4878564446,1.057541456,1.931134771,2.255145083E0,1
17.736718,-1.466541035,-0.5336636782,2.877821204,3.273743180E0,1
17.746729,-1.798609674,-1.999463578,3.630576544,4.518178550E0,1
17.756741,-1.513541247,-3.250143245,3.420202496,4.954999832E0,1
17.766753,-1.332273176,-4.325078999,2.418915932,5.131511907E0,1
17.776765,-1.540658879,-5.166245409,0.9392826891,5.472291419E0,1
17.786777,-1.81649046,-5.593257628,-0.7043579364,5.922861520E0,1
17.796789,-2.203924338,-5.720195417,-2.455713045,6.603669030E0,1
17.806801,-2.802892059,-5.764005096,-4.201402786,7.663663877E0,1
17.816813,-3.588519276,-6.181679311,-5.596927341,9.078338249E0,1
17.826825,-4.673572759,-7.157489557,-6.734398481,1.088228202E1,1
17.836836,-5.985692337,-7.930155251,-7.73470856,1.259133002E1,1
17.846848,-7.30751917,-6.829569517,-8.183325071,1.292322194E1,1
17.85686,-7.194414139,-4.44549305,-7.606682019,1.137469185E1,1
17.866872,-5.460533434,-3.257500797,-7.309539383,9.688039163E0,1
17.876884,-3.172983388,-3.390477006,-6.930650334,8.342485958E0,1
17.886896,-1.212480684,-3.388407091,-6.471411771,7.404767541E0,1
17.896908,0.1019160917,-3.026628165,-6.13688847,6.843410336E0,1
17.90692,-0.03956313819,-2.919993662,-5.54085722,6.263307989E0,1
17.916931,-0.1028648025,-1.243149623,-4.450360272,4.621872857E0,1
17.926943,-0.297470372,-0.6087501132,-3.977124644,4.034425084E0,1
17.936955,-0.3925306034,-1.142606165,-4.38327926,4.546731375E0,1
17.946967,-0.4021574593,-1.772401577,-5.070628815,5.386502999E0,1
17.956979,-0.4833913645,-1.809219155,-5.612422462,5.916606042E0,1
17.966991,-0.5240707362,-1.449924125,-6.236765345,6.424497807E0,1
17.977003,-0.4080707484,-1.064585012,-6.810459062,6.905231033E0,1
17.987015,0.05623881251,-0.5170061302,-6.999529365,7.018822513E0,1
17.997027,0.5460688385,0.1854286569,-6.698811741,6.723589347E0,1
18.007038,0.5480530912,0.6457355064,-5.899384511,5.959871990E0,1
18.01705,0.2255294466,0.9459952927,-4.73444549,4.833295431E0,1
18.027062,0.1251502955,1.267467608,-3.276356898,3.515202876E0,1
18.037074,0.5759156585,1.734764219,-2.584543578,3.165588610E0,1
18.047086,0.522108703,1.914053299,-2.286412178,3.027189816E0,1
18.057098,-0.8746192083,2.055980426,-2.684121076,3.492351675E0,1
18.06711,-3.273289741,1.765763233,-1.824710183,4.142693903E0,1
18.077122,-4.364927773,1.501483119,0.9420601165,4.711106376E0,1
18.087134,-1.931336792,2.065046534,4.545951138,5.353517604E0,1
