Time (s),Linear Acceleration x (m/s^2),Linear Acceleration y (m/s^2),Linear Acceleration z (m/s^2),Absolute acceleration (m/s^2),label
23.52047638,-2.1036174,-10.72793334,-2.07575644,1.112755699E1,1
271.6510063,9.758858498,5.376239389,3.439962577,11.66072947,1
124.6053911,-0.1603825472,-0.4981579229,0.4452192789,0.6870983073,1
104.111246,7.169210885,-0.576475237,-26.83391109,27.78108517,1
44.75802658,1.089024912,-3.802530585,-10.81892069,11.51929941,1
46.166503,-0.6233446173,-1.897810611,19.86892766,19.96908937,1
204.1367128,-0.5450568682,-0.01830394115,-11.18968445,11.20296657,1
199.9309032,-3.323034051,-8.301096765,-7.631025147,11.75513962,1
44.988492,-0.9851080491,-0.1626978984,-0.1947608131,1.017270981E0,1
138.138949,0.1674929076,-6.546586499,-12.03339907,13.69994679,1
56.43157479,1.094766878,-0.5775122407,0.8832043827,1.520554138E0,1
186.4375752,3.123212765,5.04392809,3.52642477,6.901546219,1
18.11394642,-1.300979755,-10.35621882,-1.759322817,1.058484924E1,1
36.95923925,-0.6253755015,-0.3840147185,-0.679263441,9.999803219E-1,1
86.28430829,-0.4344557244,0.07316803671,-13.80752967,13.81455685,1
3.179210625,-2.83804552,-2.842932622,-8.031619645,8.980182760E0,1
96.01843283,1.565829096,9.553613042,3.539844714,10.3079505,1
123.1378982,1.833531293,0.1847281605,4.912666869,5.246928364,1
138.6768137,-3.164121932,4.80345316,0.588832706,5.782002579,1
52.50493425,-1.61167609,0.9270204931,0.1650411701,1.86657585,1
46.0160655,0.1166075865,-5.625909065,-6.934411263,8.930314087,1
63.10716054,0.6428586763,0.6709783749,15.0117345,15.04046715,1
6.019468667,11.3615423,-5.586198869,-6.117799065,14.06121356,1
194.2495551,-0.9707054798,-8.367943304,-11.4524934,14.21704433,1
116.3271008,2.51510146,-1.551758063,8.717894483,9.205181837,1
60.86690613,0.5403135704,-0.7519536871,0.3927622262,1.005800809E0,1
201.0049407,2.649663726,1.912182044,2.645099682,4.204011223,1
113.0884011,-9.471354412,-6.971798944,-2.086035115,11.94420686,1
160.9423626,-3.085482729,10.49168711,-0.357278325,10.94181657,1
33.91537221,1.158143532,0.8433737344,-0.2242921392,1.450131946E0,1
36.83640337,0.3522266961,1.070612907,2.539266833,2.778156168E0,1
49.89740408,-1.121992098,2.199190139,9.088060656,9.417438612,1
13.618481,1.802071518,1.264587854,-0.3588687676,2.230567414E0,1
262.7173089,-2.014928587,-0.869440037,-1.726143669,2.792030651,1
98.54033117,-1.276106577,1.859348796,0.04731566906,2.25562956,1
272.8254363,5.212001041,-8.707610984,46.5510544,47.64439221,1
160.091307,5.134874513,-1.778629738,0.2281162548,5.438979411,1
32.05354437,0.7221860238,-0.52835733,-0.06700850666,8.973317453E-1,1
298.1510163,1.059240292,-3.772774689,-10.18323947,10.91119539,1
52.86533754,-0.6751306289,0.2350147998,1.07689574,1.292570214E0,1
107.3816793,-3.307974255,8.510879075,3.541994151,9.79405324,1
170.6910882,-1.608961082,-9.200343568,-8.533248768,12.65114272,1
158.1441194,2.618828435,-7.834221153,-1.017693266,8.32279899,1
37.27786683,-3.357240263,-3.103039579,4.229974621,6.228370742,1
38.210686,1.377099978,-0.4992218238,1.972300338,2.456744879E0,1
44.94834533,0.9193947007,-0.4739881647,-0.6554073858,1.224544910E0,1
63.15740688,-0.3418040342,-0.3820933235,0.8176243508,9.650569334E-1,1
57.96331667,-0.4543368423,0.1341354194,-0.7917223549,9.226259070E-1,1
55.12022633,-1.620166978,-4.249460467,-0.1395873633,4.549982410E0,1
39.25910108,-0.7640005593,-0.5059437829,0.6378014195,1.116452693,1
194.781554,-3.503751314,-5.290250235,-10.19385567,12.00740248,1
96.80381171,-0.6650113644,1.404899395,-2.944318079,3.329413068,1
155.8573839,-0.1471508464,9.919020166,0.580870589,9.937103455,1
33.98373567,0.2903785034,-1.525467228,-4.488509846,4.749535827,1
29.49055575,-0.3895651149,-0.003230001926,-1.194650477,1.256567218E0,1
20.59956033,-0.1238231237,0.1364997411,-0.3909097552,4.321744810E-1,1
18.46664954,0.2361696249,1.590272357,17.55266545,17.62613987,1
19.06509742,-0.4319819136,1.251193053,-0.1217331827,1.329252194E0,1
107.7327073,-0.2416655326,-32.59657601,-7.250092496,33.39399663,1
170.2996192,-12.31327956,12.55102735,20.42877517,26.95329286,1
24.71672854,9.936641335,0.8799050912,25.55669676,27.43457351,1
273.7790344,-0.5058756629,-4.551914129,12.79029775,13.58556399,1
61.89258842,-3.286722842,0.4577602409,7.573286231,8.268419185,1
217.32631,-3.629098368,-6.403599856,-6.594786267,9.882694571,1
28.71922921,-0.2137566626,0.09228251159,-0.3163425529,3.927856712E-1,1
125.7223617,1.401850657,-8.016404606,-11.09809015,13.76210497,1
168.2820463,-1.933672462,-12.37836141,0.9566097432,12.56495215,1
24.73498387,-5.899808434,-6.396455728,-3.986611751,9.571596455E0,1
229.8333822,-9.087492306,-17.28247497,-20.6330535,28.40755805,1
15.02359204,-1.292465917,-1.203623907,21.89148891,21.96261518,1
66.03112333,3.846378563,10.52047179,3.658650781,11.78391616,1
158.0839422,-0.6732495797,-6.091425199,-0.5728786147,6.155234834,1
39.69700492,1.78877495,1.007203946,-0.4139255655,2.094160926,1
105.827123,2.647865415,9.643373065,-1.963734167,10.19127505,1
271.8517633,-7.915472308,-3.468960966,-9.369889433,12.7468906,1
61.37062342,4.296652175,-0.7278447399,6.099807183,7.496574254,1
119.1577245,2.127660858,-12.75672655,-13.26333633,18.52503991,1
29.00957271,0.4973059836,0.7018775475,0.2583405125,8.981565306E-1,1
53.74637317,-1.01010263,7.822717341,0.6298573923,7.912770328E0,1
37.90021783,-0.9835978594,9.125568205,0.1253878386,9.179280033,1
54.57959625,0.01779673174,0.6561032045,-0.4115505727,7.747012408E-1,1
151.4945393,14.82004406,-16.81491757,-18.66617061,29.16849472,1
174.1312449,0.8734354395,9.794746953,-2.529216931,10.15366415,1
143.6395852,-12.94302936,10.41063886,6.796905216,17.9471817,1
5.558578625,-0.4566821605,-0.9919321883,-0.9073411041,1.419773201E0,1
29.06964471,0.1762836117,0.0508579123,0.3972469676,4.375700998E-1,1
36.43834871,0.6395178697,2.81390529,-0.6939090351,2.967921130E0,1
9.853991458,14.3608704,-17.15266561,14.66428593,26.74864143,1
108.2542315,1.276420864,10.56596312,0.9577471729,10.68578994,1
237.0505625,2.10589182,2.817905078,-3.803436027,5.180877821,1
168.6333643,-5.902821504,-14.21179447,-2.750837806,15.63283443,1
83.81503267,-6.231961273,-4.111165046,-6.73956508,10.05787039,1
27.49525879,2.962935029,2.211240374,3.467421686,5.068686332E0,1
6.2429335,1.111038802,1.532150303,0.5937198454,1.983530949E0,1
44.64206988,-1.066372214,-3.481480147,-4.106781389,5.488488597,1
159.5382264,0.5462120953,1.098028162,-0.2463092633,1.250872396,1
222.4054217,-0.1460815734,-14.07837621,-13.65588798,19.61390561,1
85.35080192,-8.775497743,-10.2080457,22.83217727,26.50512925,1
136.3723218,-0.5275568461,-13.08204808,-13.24536316,18.62412262,1
136.4526228,-3.621129198,-11.46620512,-8.621537046,14.79585542,1
15.55412142,-1.162648374,0.1215601051,-0.2610202914,1.197772805E0,1
139.9505617,-0.608901008,10.61975283,0.533061415,10.65054295,1
199.6297722,9.316987334,-3.037840493,35.74264466,37.06172386,1
199.0977727,-5.280650277,5.198672898,14.40283119,16.19731501,1
90.02837017,7.591262326,-2.709766964,23.27354382,24.62981816,1
43.08630779,-1.41583018,-0.7845554227,-1.381676593,2.128175867E0,1
17.21549413,2.902697598,11.08118468,3.536311827,1.198848650E1,1
191.8304678,1.250456596,-8.298939727,-9.466783059,12.65132498,1
21.34044733,1.761390977,-0.7809973919,1.183181748,2.261055981E0,1
25.31263538,3.904532923,9.825216794,0.9560044833,1.061575277E1,1
263.6909805,0.5034430019,-0.3184650922,-1.72117412,1.821349836,1
244.8399121,-3.688627409,-1.834691234,-17.17723444,17.66435527,1
127.4236902,-0.1746480358,-2.833917385,-7.550410169,8.066615363,1
264.0623815,3.249656172,-0.7137637675,0.9413987964,3.457738517,1
183.5493631,1.762631172,-8.405915122,-11.04946003,13.99488637,1
28.95701187,-1.964029452,1.557899979,0.1248281139,2.509989261E0,1
53.70843,1.474678313,-1.478781158,5.368554393,5.760455373,1
34.31617529,-1.13742407,-0.6138728589,1.281504434,1.820117308E0,1
57.10831717,1.128545512,3.599527537,3.335094518,5.035183105,1
51.85478129,-2.431527353,8.779362752,-3.455544237,9.743219262,1
7.436372292,1.129764729,3.739252602,9.024359919,9.833486173,1
61.34746413,1.128573724,0.8896369046,-0.008252833262,1.437080576E0,1
27.96263458,2.975574078,-10.59086524,2.719863936,11.33217223,1
109.7724977,4.95679756,-4.457382193,-1.385550374,6.808659773,1
22.34164533,1.005000423,-0.1170267588,-0.2096484089,1.033282908E0,1
118.1439195,3.806517509,-3.359932028,-0.7604140234,5.133901856,1
6.764416292,-0.6054068946,0.0246629709,-0.3945490623,0.7230454569,1
33.53526829,1.060088065,-1.193127862,-5.469273267,5.697393340E0,1
33.98301254,6.647759117,5.609503532,0.9099507165,8.745698455E0,1
65.12850321,1.804627921,8.721938417,2.987302131,9.394299639,1
20.77716654,1.595068244,1.512057223,-3.524300476,4.153462844E0,1
145.2857603,1.686761794,-4.370220088,-6.250550156,7.811105314,1
119.7499481,-7.326548933,-12.14387169,-16.76912101,21.96258997,1
51.93424213,-2.776950302,-3.414585076,-1.124823613,4.542694397E0,1
108.8992188,7.703809533,-13.8347356,-7.664354276,17.59235393,1
1.502399417,30.30721333,-47.07474506,37.20357851,67.22101648,1
209.2258445,7.753240725,-5.741740068,34.43515579,35.76115595,1
117.7624875,-1.52010957,-3.068160937,-10.85321227,11.38053431,1
54.83976079,-0.2159533153,-0.5834932114,2.402723823,2.481971380E0,1
54.87616492,1.697797537,0.9386883196,-1.271616792,2.319625294,1
131.0322857,-1.451734569,-11.79479058,-8.909176787,14.85254352,1
43.30656079,1.008416512,-0.6036449093,-0.5627114761,1.303048443E0,1
15.12360842,-1.635765011,-0.3997337884,-4.876732221,5.159266559E0,1
38.23146979,10.07940461,-23.36611928,-6.088071236,26.16552195,1
13.44159929,1.612193569,0.08800585806,0.443650471,1.674436883E0,1
43.15004292,-5.875139616,11.18563817,1.171867386,12.68893376,1
19.00502442,0.4799451618,0.454245041,1.026121443,1.220496264E0,1
209.7779203,-0.1621313033,1.714708562,-7.161065714,7.365281676,1
58.59426771,-1.771914357,-5.648198651,0.4651907364,5.937864171E0,1
232.2625289,2.680443762,3.191322887,-9.280367977,10.17322713,1
206.1241834,3.923076783,-6.181009805,16.09638599,17.68301602,1
179.2062217,10.02075704,-16.97300056,10.57848552,22.36968206,1
33.22455621,1.779218261,0.8236984384,-2.470363244,3.153853404E0,1
65.40931821,1.067279263,2.30636931,-3.37421473,4.224186248,1
79.53896417,-3.561463625,-0.6809888081,13.3197912,13.80451399,1
61.21513354,-1.860416498,0.7130498224,0.388849233,2.029973724E0,1
112.1112764,4.988777152,0.4814913118,36.49333827,36.8358992,1
172.6167779,-0.08016518041,0.4636479485,-1.375576486,1.453824798,1
269.3623724,3.143890859,-1.891665919,-8.353771992,9.124031793,1
84.06355658,2.376940818,5.100489961,2.371766324,6.106563763,1
37.38973725,1.790100221,3.274336685,2.602876353,4.549802725E0,1
215.5295512,4.213391333,0.2280817562,35.37844265,35.62918596,1
168.6450652,-16.59258889,-0.5052479643,-5.816790251,17.58989285,1
212.1267525,-0.9319558355,-7.157174976,16.94270496,18.41599704,1
35.14713912,1.644717098,0.6978277659,-1.66271015,2.440627576E0,1
45.068584,0.09903560713,-0.451315586,0.05979538143,4.659069620E-1,1
88.16551587,-1.174987607,0.3536086124,0.04693026446,1.227940298,1
27.79813821,-2.192640527,3.962682021,5.447036891,7.083835979E0,1
34.22607029,-0.8421480118,-0.1489733139,1.42443085,1.661448033E0,1
37.83495417,-0.9949264743,-1.61555718,-10.00271487,10.18107109,1
293.6440013,-2.058993789,-8.479036893,-16.9415554,19.05649027,1
36.96655738,-0.05771201849,0.6397426951,1.71824218,1.834382071E0,1
72.19133967,0.2151295888,4.362696184,-0.7365106058,4.429655359,1
80.17134017,-1.210508272,-7.490524741,-14.61076753,16.46352997,1
87.47349408,1.370663801,9.750126266,2.123042142,10.07228819,1
125.4212317,6.886174073,-3.472588286,25.2311963,26.38354657,1
22.76214771,-0.2908397757,0.1598546898,0.2564582938,4.194188282E-1,1
71.91028254,1.118567896,-6.814505335,-11.06399855,13.04226748,1
1.427073667,0.1885592562,0.413071872,1.342039488,1.416775547E0,1
44.51784008,1.138906339,1.217915964,-1.62754441,2.330091790E0,1
118.8867075,1.346536582,-8.629811441,-8.983948642,12.52988984,1
189.4314557,1.128476222,-0.2559372338,12.74629862,12.79871443,1
111.3885634,-0.5631120104,-10.03227138,-20.93299929,23.21969043,1
62.40451554,2.655494862,1.302613759,-9.01634631,9.489096709,1
153.155282,0.7491964325,-9.268743128,-13.99644502,16.8039093,1
186.4175152,2.763186249,5.33482473,3.379034297,6.892998326,1
56.55189296,-0.1458978977,0.833180868,-1.037066773,1.338276521E0,1
86.41479829,8.630882066,4.127812069,8.488053299,12.78976179,1
44.14740608,3.60051367,8.657161793,2.36896887,9.670685730E0,1
137.2325643,2.302265442,10.01651898,2.178083299,10.50595667,1
0.8026705417,14.07373586,7.30618542,-3.971623583,1.634699301E1,1
106.058555,-0.2825362909,-12.31940393,-13.28315371,18.11876686,1
193.4482935,-0.1479778254,-0.5362200809,1.534137479,1.631872304,1
145.2957983,1.874275568,-4.979569541,-5.200780819,7.440238091,1
76.15624817,13.18999938,4.867259439,-6.930954389,15.67496178,1
102.1639343,2.204381298,-0.04482175849,-4.795592748,5.278164046,1
236.2575753,2.550221007,-7.598770151,12.07701696,14.49480161,1
265.0059398,-1.332176112,-1.812397994,7.393645148,7.728225428,1
170.7211869,1.586714619,3.934029495,-1.212258855,4.41178228,1
151.6797476,-5.838046634,-18.2378913,-9.753022392,21.49011199,1
58.44409271,-0.3824146645,-1.691004826,-0.6494283155,1.851349625E0,1
76.38119746,1.977038922,3.036563753,-2.462124809,4.380805965,1
23.63624592,0.9936471766,8.194933548,-2.258201702,8.558255984,1
202.9522593,-0.9883371739,0.5664826378,-3.907774327,4.070431567,1
151.5191446,17.64914334,9.766570975,13.85529558,24.47135846,1
121.5231551,3.609858398,3.310767177,-3.529268271,6.037217197,1
7.797423917,-5.870292274,-3.941444349,-5.219812921,8.788729252,1
81.60640108,0.7434701081,5.447998173,0.4040520302,5.513319321,1
57.36283658,-0.3532344637,-0.825582996,1.631865503,1.862618288E0,1
19.92275446,-2.960716011,1.211131732,5.656052631,6.497969739,1
60.75459417,1.827433816,10.15693635,-3.372779238,1.085718703E1,1
8.592324125,-2.710546398,3.35362376,-0.8498375389,4.395006023E0,1
237.1910925,-7.119824132,1.899947476,-13.9204663,15.75058977,1
137.0046948,6.217628578,4.591355352,18.20304306,19.77600126,1
72.65035087,3.225936065,10.30783896,-4.534583566,11.71412206,1
69.52129629,14.10209836,-16.57071329,22.33700465,31.18332076,1
11.86971637,-1.778512794,-0.9691321403,-2.26173225,3.036076026E0,1
159.34852,-9.50327027,-11.66195821,-18.04619969,23.49422776,1
20.23366046,-0.1462221258,-2.36084928,-3.728989862,4.415920699,1
45.68921333,-1.150844599,-2.876586272,1.692753582,3.530524970E0,1
90.57253183,-1.554974617,-10.36623159,3.762609305,11.13705222,1
212.2973945,-0.325283238,-3.399649533,-14.2532945,14.65673327,1
82.02762858,-0.4434430775,4.246645033,5.523719616,6.981555285,1
19.55076058,1.412662159,0.2775255194,-11.86152836,11.94857689,1
60.84208142,-0.7042847731,0.6220911205,1.818659484,2.047080048,1
131.7248845,-0.9708562649,2.625533729,6.296436181,6.890652932,1
10.2443545,0.5896963763,1.880667452,0.2610050887,1.988158831E0,1
194.4011099,-0.7244156402,-0.5702409357,-0.4613184178,1.030906119,1
58.85236512,0.3255589342,0.4855592197,2.143737193,2.222018345E0,1
55.65911483,9.472345515,2.308128445,19.65679536,21.94179551,1
47.28112229,-1.786722285,-2.833557197,-5.861439005,6.751139912E0,1
211.0125638,0.7009843853,3.765413045,-6.776572108,7.784063466,1
6.491253333,50.07373052,3.134168693,23.02697609,55.20365141,1
35.51820642,-1.332624155,1.00757349,-3.21907348,3.62677895,1
48.63263642,21.74543248,-27.45104728,16.59586216,38.75366398,1
32.67144979,-0.9948989193,1.625299079,5.507953184,5.828290421E0,1
32.87120958,-2.516280844,3.541063859,-0.5506333943,4.378812587,1
16.10770371,2.05661558,-3.036290396,-12.41858557,12.94874491,1
302.4873894,10.98898345,-3.667449379,4.697058393,12.50081196,1
141.8829953,-2.419662622,-11.13056442,-9.907613418,15.09652394,1
44.43145688,0.1200679687,-0.6645115006,-6.56047539,6.595136784,1
276.1078208,-7.436965415,-4.828085433,-8.804081857,12.49522792,1
302.7684514,-0.9628486492,-4.783545145,-13.83537528,14.67061658,1
153.4703549,-0.9768662524,-0.8495138955,0.9796927965,1.623496076,1
281.959904,-10.94634321,6.824330996,19.24062797,23.16453513,1
25.21554887,-3.821703313,-0.9679317069,-2.754983482,4.809598943E0,1
235.4043623,-0.2110616078,0.2415952563,-1.230174066,1.271315659,1
34.64792771,-5.708285224,11.56176032,1.817494573,13.02160161,1
141.7257869,-0.8926230776,-6.961427738,3.238951675,7.729751617,1
109.718522,2.76461677,-1.902571707,1.621903017,3.727392437,1
174.2946159,-5.579371076,-5.458643614,3.041561369,8.377187312,1
291.1445658,-6.262923449,-7.074368463,-15.92554789,18.51739654,1
259.394779,-0.03524877012,-0.2713368264,3.635264842,3.645547506,1
154.40999,6.280524738,-3.008880696,4.300079228,8.184682974,1
125.187105,0.1050088303,0.8322882906,0.137350511,0.8500563604,1
5.6021565,-0.4800854219,0.3383690143,2.183722208,2.261331086E0,1
5.611059083,-1.624405333,1.545693331,2.746640675,3.545686895,1
213.5621528,11.26691096,-7.195594107,27.37260338,30.46275222,1
93.26037833,0.6094382574,7.105890802,-3.640624107,8.007449218,1
54.90998133,0.3073514356,1.241614729,-0.4160279319,1.345046943E0,1
44.255182,-5.91869494,4.919426835,-12.32488277,1.453046612E1,1
23.75333071,-0.253394499,11.72002574,-1.720174831,1.184830003E1,1
31.95342837,0.2251533245,-0.380067848,-2.670526884,2.706817214E0,1
114.9519385,9.25485599,-2.17795276,6.272149771,11.39015805,1
125.387696,0.07306841478,-0.08361079842,-0.1982580328,0.2272355747,1
299.5763971,4.455682992,0.3117521963,0.8990439051,4.556158503,1
40.31935617,-2.936093386,11.3857334,0.2924252482,11.76184858,1
5.391071958,0.6758315639,-4.267065264,2.47043458,4.976709885E0,1
64.1203075,-0.007516011,-0.07807757825,-1.098141013,1.100938819E0,1
143.1600076,-1.018965109,0.4092606568,1.953291625,2.240788332,1
95.00706504,-0.1975270212,1.982045892,-2.547966905,3.234139483,1
131.8467122,0.01424279407,0.1182418102,-0.2649829495,0.2905166887,1
137.6838923,7.515111698,-7.746155654,4.244007939,11.59704422,1
14.68978692,7.392478629,-11.04615051,-15.2576181,2.023514496E1,1
16.05144263,-4.58359025,-1.257419168,-6.41022943,7.980065406E0,1
3.686256875,-1.568679028,-12.72056152,-2.994899418,1.316217542E1,1
187.2833873,-5.904919485,-3.690842627,-6.231269547,9.344469679,1
4.497820167,0.1990873142,-1.085094121,27.13483688,27.15725386,1
118.6346738,2.985569893,1.573527247,-3.160183248,4.623459067,1
19.61184746,-0.08088822518,3.608354786,5.107976151,6.254453416,1
26.79740429,6.581520689,1.152501993,2.604004281,7.171158464E0,1
85.21027392,0.5280371949,0.739892343,-11.71044332,11.74566927,1
65.98288483,0.1852516325,-0.2565337229,-0.02496000946,3.174125397E-1,1
248.0219045,-19.17587357,-0.022966986,-7.520966515,20.59804825,1
56.67203296,1.035676524,0.2687479717,-0.4384032527,1.156308240E0,1
146.7706332,-1.748862148,11.8245798,-2.159878432,12.14678069,1
282.230926,-4.603695024,-5.286596895,14.39791251,16.01380652,1
133.5717895,1.178455444,-1.747871922,-11.30300115,11.49789757,1
87.70966158,-3.662043335,2.885378146,-3.445913288,5.797437953,1
3.705515167,-0.01915544193,1.559800909,21.35297906,21.40988231,1
8.281941125,-0.2966291039,10.75444929,6.924891996,1.279454171E1,1
49.63381587,-0.803197808,-0.4010263154,-2.637706463,2.786295786E0,1
34.49638412,3.203566957,3.521278051,7.175525293,8.611062861E0,1
6.85367275,1.44327321,0.1251362622,-0.9602379405,1.738031514E0,1
115.815179,-7.185284296,-1.171242611,48.58824304,49.13061654,1
65.57981321,-0.2954640462,-0.51919065,-4.236405389,4.278316088,1
64.73736746,1.700476146,10.99356766,-11.27311603,15.83771745,1
39.80742192,-6.709856547,14.98870115,2.067134721,16.5516278,1
111.7298444,5.832947277,-11.7760982,-6.789916039,14.7919817,1
39.90264042,-0.007799747139,0.3418106854,-1.758979293,1.791899421E0,1
18.197264,0.9212513378,2.396959053,1.929888144,3.212255435E0,1
46.47449967,-2.950696222,-4.147418368,-21.01623324,21.62382359,1
179.125985,0.4598466736,-4.02022447,-1.403257497,4.282848977,1
17.44637379,-0.5451957031,-1.672145217,-1.973391429,2.643403433E0,1
6.942985958,0.9361801565,1.53001987,-0.5684873557,1.881640763E0,1
98.15467575,1.922829385,9.982435559,1.839455399,10.33101586,1
34.7763885,-2.150143841,1.07619232,1.680170374,2.933305462E0,1
20.03307546,-0.2472807234,-0.1306583726,0.5797871,0.6437176771,1
6.442369708,-0.2339407394,0.288729077,0.1367049692,3.959558032E-1,1
66.83117504,-7.274018717,1.03983119,-5.07642516,8.930996003,1
62.45658588,-1.839497353,9.706632337,0.4612540619,9.890157590E0,1
37.24775283,-4.191566893,8.54123548,2.465515902,9.828565775,1
233.5574052,1.752230875,-1.294290979,7.538425131,7.846869162,1
6.413394083,1.058651404,-2.127184895,-5.236844691,5.750669586,1
263.8214725,-1.263728313,-0.7210309795,-5.710405424,5.892845241,1
28.77856729,-0.8419957649,-0.6967523168,2.277839575,2.526454787,1
34.04565008,1.400845228,6.108449367,-2.821119,6.872716598,1
164.0862998,-3.608457989,-6.980310736,-6.492164124,10.19283582,1
190.7062432,-12.99433751,-7.518974369,-10.56086084,18.35536882,1
11.72954837,-0.5452481818,0.1237826318,0.08139791965,5.650162308E-1,1
210.4102988,5.663592031,-2.57913198,-7.897546499,10.05482159,1
40.74102713,2.164721973,8.18570021,-4.120468551,9.416473343E0,1
24.98134192,-2.130882089,10.64547122,-0.2936599609,10.86061472,1
94.71597204,1.878508514,0.04095755294,-0.7498399186,2.023050089,1
5.691293083,-1.940891581,-2.482051828,-7.186933211,7.847270251,1
28.42438233,-3.012769971,3.158464167,-0.07898301959,4.365651968,1
37.38828383,0.6511547059,-8.353359178,-0.6123718786,8.401048228,1
103.92053,5.716038632,-3.693122164,3.865348685,7.826440405,1
265.8993098,0.7845390505,-7.440756165,-11.07917324,13.36893539,1
10.5947845,3.645502147,10.88936794,2.476164266,1.174731499E1,1
15.51407342,-0.7695108292,0.7840584093,0.989465248,1.478491117E0,1
246.415851,-4.442042315,2.62951159,-13.56367388,14.5127296,1
159.2975174,0.35102005,-5.231485718,3.002160491,6.041905784,1
42.57605917,0.6017150357,-0.6782644442,-0.9805067289,1.335476352,1
49.68673817,-3.884591872,-2.3409629,5.953273619,7.484091668,1
55.62400067,0.3212446392,-1.369158289,-3.406398389,3.685287306,1
18.31418842,1.282871659,12.84778991,6.746231491,1.456787921E1,1
37.68982108,3.636391893,9.809176127,1.339931567,1.054697582E1,1
4.339771583,1.531347188,-2.727567642,-0.7058384514,3.206689472E0,1
19.899281,-0.3652340466,-0.3233755839,-0.7975485206,9.349071182E-1,1
23.42544692,-1.313941716,-6.547009252,-2.097911979,6.99935766,1
33.44215721,0.09426351171,-0.6003111193,1.339017062,1.470450864,1
70.67563867,-6.76852634,0.5020860824,-13.77414792,15.35552637,1
84.49481258,4.848012159,-3.31742394,-13.20468291,14.45241067,1
91.36338346,13.41233625,-1.757287986,17.93922488,22.46763481,1
282.5019479,1.276333887,-0.6625541452,0.9296178263,1.712365466,1
26.07548742,1.537235626,-8.988049879,1.290871089,9.209477844,1
51.46368813,-1.198653846,-0.9698718131,0.5556071091,1.638939180E0,1
58.15375571,0.5005408095,0.7194039917,1.084712298,1.394519263E0,1
46.30993933,1.240817753,-3.523540338,-1.906083544,4.193819225E0,1
19.31097067,-0.3114189781,-2.018427268,-9.145368631,9.370634868,1
39.75785987,0.1369814055,-0.03880913973,-0.3362757111,0.3651731214,1
43.65683133,-0.500038826,0.8656820315,0.2403076994,1.028198423E0,1
46.94836554,-0.2754534124,-0.8980820382,-2.221261917,2.411727686E0,1
20.14902033,0.6348531072,-0.1229037952,-0.2407497489,6.900030813E-1,1
181.7124662,1.511726856,-9.985105398,-8.555744761,13.23587611,1
84.67533858,0.8409170267,1.969333169,1.652825432,2.705040939,1
57.6709805,0.8303422641,-9.538606748,-2.546270628,9.907470973E0,1
71.84001854,1.696619615,-3.344420242,-9.149574534,9.888295051,1
272.4439973,-0.166708796,-6.88646234,-12.02517438,13.85842611,1
164.277015,2.632110385,1.322572645,-5.598986145,6.32659856,1
273.2269513,1.386265196,0.9724238303,-15.27077317,15.36436958,1
216.693932,0.937751888,-7.151416054,-4.973100767,8.760928114,1
267.786427,-11.41561267,0.9291161352,-24.19998135,26.77346759,1
258.7724332,-1.92122374,-0.194830395,1.835456781,2.664199905,1
232.4833612,-3.809651324,-1.991462541,-21.61316145,22.03651774,1
153.1092919,-0.7028854613,-2.611364756,2.651025835,3.78697925,1
38.44070513,-0.02313801706,0.2438247997,0.2073106921,3.208794537E-1,1
159.6898,3.182573698,-4.527247649,-4.776036735,7.309943469,1
156.4877857,-0.9199683856,-13.39438296,-9.776848626,16.60851004,1
249.0558008,14.28800123,-3.624817329,6.036843195,15.92889687,1
132.6784627,-2.688715818,9.607263,15.9451115,18.8089148,1
191.4624234,1.676568051,12.12723987,-2.282698173,12.45357532,1
141.5015643,-9.247998376,14.51671156,25.87066184,31.0733251,1
280.1530846,-0.07089785524,-0.7737462598,-11.50627492,11.53247902,1
88.69706587,5.110682827,-6.560380665,4.694036552,9.549432056,1
45.65926188,0.1760963546,-4.268791362,-7.123413153,8.306419480E0,1
277.4027063,2.011324071,1.514097463,-3.063394287,3.965135585,1
160.7818896,-1.86238277,11.1018581,0.220099576,11.25913703,1
121.1119471,2.072590465,9.691659372,2.763096202,10.28876053,1
45.56915787,-1.642777723,-4.668332192,-6.90671885,8.496752872E0,1
63.29317558,0.004027708322,-0.1318412644,0.1931159914,0.2338634806,1
9.54618225,-3.602149136,-14.23850572,-4.632780829,1.540042797E1,1
17.606563,1.230480022,3.227063408,6.572839912,7.424974332E0,1
176.6587029,1.841696198,-13.15867818,5.955930594,14.56076116,1
93.97245637,3.573382589,10.47197966,3.174059275,11.51112824,1
49.97770608,-3.715450634,-0.03968622208,-4.157655673,5.576042423,1
103.570517,1.831394135,-22.07379107,-5.140640452,22.73834736,1
89.44618317,-1.178929361,-1.336783718,-1.251255618,2.177729498,1
59.95660338,0.5325208399,0.6254544389,-0.05313832641,0.8231618199,1
47.54907442,0.2354596268,9.916424003,-3.954807576,1.067854902E1,1
99.38828162,-0.9229126049,-2.167560503,-0.0216803062,2.355961852,1
39.3694055,-8.196127549,6.525680948,-5.135949816,1.166786181E1,1
114.12143,0.08473916486,-4.551101366,-2.742407876,5.314179647,1
11.45583917,-0.4306636588,2.533742384,0.9103588521,2.726549998E0,1
18.30680883,0.1961400251,0.005769447684,0.303985559,3.618168266E-1,1
7.966840167,-7.302839059,-14.87622177,-3.861824568,17.0160842,1
57.51610833,-1.403473844,-1.461346076,-8.080399457,8.330553797,1
271.6409683,13.26510336,5.440723068,6.622464062,15.79308282,1
229.9739112,67.21953501,7.127762897,44.95172397,81.17837384,1
55.07002379,0.8779500016,-0.3588199434,-0.5279228818,1.085472490E0,1
173.1583749,0.9313942835,7.494798471,0.6281127293,7.578523935,1
45.76181204,12.11274345,-5.875347776,4.138438214,14.08420876,1
12.02653717,2.248545317,3.933051841,0.1789274302,4.533968223E0,1
19.816005,-18.60140802,-49.40144105,16.32397716,5.525384139E1,1
155.8674139,0.08681470715,9.607261831,0.4513068882,9.618248,1
187.4841417,-9.942603157,7.246487103,20.53752169,23.94069193,1
114.622901,0.01843261644,-1.674377099,-5.357462225,5.613045512,1
46.116357,-0.3782581347,5.492275044,-8.150274269,9.835402129,1
137.787631,0.644925667,-9.398341985,-11.31778408,14.72538616,1
27.25997358,1.826100651,-12.41217001,2.479898883,12.78853027,1
61.939247,0.3451003289,1.366332769,-4.650905151,4.859719971,1
104.5834821,-0.03009678841,9.43119632,4.742523419,10.55650976,1
122.8069257,1.621551307,-1.337098006,-0.7000134552,2.21523781,1
259.796293,-0.1011869439,-0.1452138466,2.81723411,2.822788318,1
188.4076094,-2.940657722,-8.539504119,-7.90394803,12.00179124,1
47.55139296,4.20667142,10.73661645,2.031374173,1.170886409E1,1
306.2014169,1.573807037,-2.899297442,-4.46404685,5.550721442,1
275.7765718,17.06489189,-3.431901897,1.486267494,17.46990203,1
270.7676731,15.03081046,-10.54358934,4.733107647,18.96034934,1
7.6011025,-4.789781785,7.410462325,-1.58971351,8.965720856E0,1
167.6797852,2.318934099,-7.65264932,0.8913840526,8.045810245,1
255.9417602,-13.54597319,-3.666755607,-4.2067717,14.65044076,1
136.9645438,15.65202566,1.541052396,25.65371377,30.09109137,1
124.3915817,0.03404073536,0.001070625186,0.3772337025,0.3787679821,1
225.7078505,7.646803274,3.870576096,6.055684093,10.49410642,1
11.95194429,0.8432181984,-0.9637443696,4.02135006,4.220317102,1
173.8730332,-3.63584167,-5.239267777,2.614946761,6.892548008,1
205.1605613,-4.158465512,-4.869517926,-15.86057597,17.10447047,1
156.7399831,-0.6803929038,0.7562186462,-1.45922763,1.778804773,1
89.158407,-0.1732002287,2.429449984,2.606646638,3.567468603,1
51.03542067,-0.1420154196,-0.7405802679,0.6217227459,9.773262942E-1,1
20.02304646,0.07721876845,-0.01154561967,0.4879103851,0.4941179854,1
191.7532824,-1.856085173,-10.8849416,1.68739534,11.17024211,1
122.0246277,-1.232497019,-5.113381902,-5.310833019,7.474668604,1
55.03676992,-2.262374713,-4.646599846,-6.564306486,8.354600476,1
190.9208225,2.969900233,10.30515742,-0.4767422032,10.73516931,1
6.41964375,-0.5921983999,0.8966418689,-0.2443788233,1.101992103E0,1
154.0520679,0.191454505,0.9091034549,1.02498299,1.383370539,1
52.85532554,-0.4839666574,0.3646095639,0.7135895205,9.361484195E-1,1
39.9200565,-0.3523282184,0.3936415744,1.034582949,1.161658616E0,1
103.871397,2.703273631,10.16026693,2.779863385,10.87503346,1
156.0278859,-1.228247409,8.357936379,0.7337144673,8.47950642,1
162.8315902,7.499819475,-3.236404628,15.97672038,17.94372317,1
9.50613225,4.056084275,5.657466488,-2.890742966,7.537581946E0,1
180.8711362,-1.772295303,1.074195496,-0.4627157561,2.123448252,1
174.0035232,-1.100229858,-10.48060547,-4.292825173,11.37901334,1
113.9381337,25.40918321,-8.279260338,10.04930783,28.55103029,1
184.1909391,-0.1952006699,0.3007690787,-1.090311592,1.14775638,1
32.21090079,0.3382033919,4.219707495,-2.721956947,5.032828479E0,1
61.26737112,0.6558633225,-0.02198611557,0.4032801247,7.702434329E-1,1
302.9591714,17.85872977,-11.67347722,36.57398775,42.34218794,1
252.3582508,-9.869669666,4.46240846,-9.27049203,14.25712071,1
187.8517532,-2.146833001,5.805751292,-3.058980809,6.904563968,1
85.94905087,1.565767261,0.7352300656,1.189805474,2.099482658,1
125.0498372,0.7200641423,-0.3779172421,29.16654785,29.1778825,1
30.13251471,2.290673629,3.528661622,2.317755593,4.803189514,1
187.4405382,0.8203178707,-0.6370330954,-0.2481077389,1.067843633,1
183.3885691,-0.168320581,0.8965138149,-0.5962180683,1.089745302,1
25.86468942,-4.434478357,11.30381157,2.071808839,12.3180009,1
88.16135858,6.006094442,0.1382595703,-1.166699032,6.119924247,1
122.1349517,0.6902051894,-2.666016342,-1.385049998,3.08259466,1
61.37749912,0.8270665808,1.005540413,-0.3551037089,1.349536697E0,1
41.10145329,4.14015788,3.539661112,3.383636348,6.412417874E0,1
160.7217126,-1.303185325,11.04228199,-1.192822053,11.18271469,1
261.3019714,0.1124589139,-1.094868327,-8.546858162,8.617433963,1
166.7262064,-0.6137166651,-1.34173631,-2.672949386,3.053123464,1
42.37295579,-1.670726683,8.756272683,-3.123487877,9.445624143E0,1
174.0710679,1.214276437,3.60024002,3.244066527,4.996014722,1
86.33016187,-0.9315080119,10.62867802,1.386369569,10.75911354,1
62.711487,-1.115283661,1.822146179,0.4195564707,2.177177525,1
107.1510033,3.028078566,-11.71392592,-4.766128921,13.00389577,1
261.5228043,0.8338059354,-0.6873527715,-22.98952585,23.01490788,1
150.5053413,6.577561539,10.32304757,1.756923412,12.36593736,1
120.0287672,0.1891729215,1.870407928,-2.055760571,2.785742941,1
138.5965777,-3.692148895,9.107485106,5.343493227,11.18620437,1
19.94934,1.050384172,-0.2004244262,0.5147409189,1.186775073E0,1
20.18645254,5.119748935,-0.8679320401,-0.5205752707,5.218824944E0,1
173.3790259,0.1587431341,1.104677031,1.957418005,2.253219024,1
41.36253292,-0.2506891385,0.7661419559,-5.08962525,5.153067409,1
180.1365497,-3.749120071,4.994454213,2.485128633,6.721334579,1
216.874612,-5.324859905,4.911886851,-11.494653,13.58704578,1
292.961425,-3.203079591,-2.723338644,33.44216993,33.70541532,1
94.97538658,-0.02616227008,-0.2052074486,-0.1022221204,0.2307464479,1
16.84240442,-2.902699937,-4.498409767,1.188420707,5.483949410E0,1
145.7675683,-6.33023835,1.069276818,0.7882491088,6.468122381,1
35.97293567,11.53570279,-18.3764095,0.4140536195,21.70106691,1
24.27395146,-0.2679483649,0.3029535985,-3.648147427,3.670498176E0,1
68.83872921,12.49589044,-1.112207952,15.82358063,20.19331544,1
42.83601979,-2.240605383,-1.375079472,-1.100293373,2.849877462E0,1
67.61412196,-1.4279728,0.8561222725,-8.351976312,8.516311407,1
150.1138735,16.1724033,20.96853399,24.50336764,36.07826315,1
33.01090121,-2.504569455,2.298156311,5.758177761,6.686628576,1
88.35607187,-0.5580489794,-0.2566436505,-1.568292235,1.684287731,1
11.76959638,-1.489899053,-0.1355185783,-1.127402819,1.873286308E0,1
90.30942617,0.8659840402,-2.055378748,12.31932792,12.51959866,1
280.3739186,-9.912463099,6.605107187,23.40018282,26.25743555,1
58.22383671,0.469406725,0.5365381694,-0.1061994696,7.207594661E-1,1
8.429262917,0.9970045017,0.4845888743,0.9569143832,1.464421213,1
137.5334493,1.267458252,10.16435764,0.8230235966,10.276088,1
17.03433442,1.976754601,0.6145853421,-4.824810115,5.250149192,1
52.04664333,-2.894197501,-3.208295308,-0.303540659,4.331474909E0,1
90.83138717,-2.26318119,-2.796681439,-19.38384499,19.71488937,1
144.9151721,-4.82879967,8.206533254,3.903599708,10.29089816,1
92.91922617,-0.1966184004,-0.9336494815,-3.758713013,3.877922596,1
18.37426142,2.625908828,8.524506011,-2.466985307,9.254653770E0,1
36.92892508,-0.1249799953,0.3387672096,0.1596628646,3.948106532E-1,1
15.73433642,0.7802372539,0.631998058,1.265365534,1.615345676E0,1
50.88020804,3.369841889,-0.803662954,-8.580076194,9.253076029,1
11.37842171,-3.793223864,-7.396043676,1.083603666,8.382374738E0,1
45.12855633,0.3049268876,-0.3160349894,-0.01146054268,4.393061180E-1,1
21.91854354,2.176197572,0.8839814776,5.502557373,5.982925436E0,1
5.178106625,-5.965908283,-11.28464674,0.8853315997,1.279527748E1,1
7.406284292,-0.3854319374,2.225519859,10.78373682,11.01773463,1
39.81231825,0.227887044,0.4954410142,0.3649516261,6.561889916E-1,1
69.59146333,-2.77456113,10.85116691,6.671367835,13.03660852,1
129.5900695,5.279473232,1.441124066,4.114694133,6.846925148,1
8.204536708,-1.942029887,-0.4945703638,0.9851885945,2.233086764E0,1
12.13004221,-5.418006635,-7.380114691,-7.349841317,11.74057308,1
296.1032851,-2.045741367,-4.91854449,-16.45495947,17.29574597,1
121.5065407,5.759329078,-5.884152514,3.188290814,8.829400916,1
187.0192932,-1.117151481,1.189465166,0.4356327689,1.688973275,1
121.7474447,-4.47232563,-11.29166924,-17.11469613,20.98609813,1
232.7744572,-7.626659616,1.352983429,-17.72527292,19.34377939,1
4.257120167,0.3977552002,-3.067000265,-6.293660508,7.012479049,1
38.34819462,-0.491327498,-0.2376893163,2.118915178,2.188081454E0,1
110.2199922,-2.68010667,-27.87805307,-8.80769719,29.35888868,1
212.8394339,24.71624605,-10.83328496,47.79825146,54.89012411,1
291.2349068,-0.393228761,-3.689487242,-14.38331201,14.85417818,1
143.2481162,-0.3441619604,-10.82682846,-5.81059571,12.29234252,1
201.7176198,6.055963005,11.04406773,0.8502366114,12.62414441,1
26.957141,0.7929726358,0.330800963,-0.6373675561,1.069800112E0,1
9.763648458,-5.945982141,0.4375646889,-16.62122271,17.65817688,1
59.70434954,6.776016623,-10.19557943,-2.722902149,12.54107002,1
54.77152204,0.3658015189,-1.915085918,-2.513427987,3.180988065,1
4.927797167,1.250151079,1.548003566,-0.2605861357,2.006763039E0,1
296.8260139,-2.449674772,-5.295927882,-15.40599705,16.47399477,1
248.8349688,6.651011338,-10.70668806,-6.873418956,14.35663642,1
231.7706769,56.42279164,-8.569536588,71.5812819,91.54697314,1
87.55909658,2.512714919,-2.705560477,4.758857616,6.023331268,1
8.101719125,-2.448346723,-5.047880808,0.6722356725,5.650433888E0,1
183.3887601,-1.401080579,-9.555124547,-4.276041325,10.56162683,1
12.66731992,0.2411904828,2.036593398,0.5768111596,2.130398233E0,1
1.479041042,-2.447738028,0.3779084712,1.094087139,2.707630501,1
31.94057788,0.202526354,0.2095215243,2.046194526,2.066840156E0,1
58.291759,-0.9663646531,-0.3907736613,-1.199629966,1.58923779,1
74.75096467,-6.56629337,-0.1758018011,-8.261093624,10.55427794,1
275.0036544,2.380787993,0.06444508731,19.13242992,19.28009801,1
158.9570517,-6.67844472,-11.53773762,-16.60606205,21.29512409,1
2.435921833,-0.01394970238,-4.610742965,-3.575372397,5.834589365,1
130.3824007,2.207357092,10.80892546,0.981464649,11.07558431,1
142.6083832,-0.938063837,-99.74751148,-2.741010976,99.78957436,1
37.98042,0.164247703,1.704990782,-1.209017086,2.096590849E0,1
54.01291267,3.162033015,2.286216297,5.53575377,6.772725267,1
100.7923879,-4.060521727,6.913080035,-1.662655771,8.187975115,1
218.6814089,12.12642477,-10.03403958,8.246464475,17.76897026,1
56.41172996,-1.591370464,0.4481545812,1.553069594,2.268331468E0,1
154.3328947,0.2585204606,0.3059327549,0.3769629765,0.5500261491,1
14.67977492,8.196993522,-17.33013446,-10.47805024,2.184751244E1,1
27.17785029,0.488395704,-2.341488564,0.08974715889,2.393565043E0,1
161.7848442,-0.3844926188,0.1012369376,-1.721523199,1.766840575,1
52.00432413,-2.636726762,-5.416390464,-0.6561339024,6.059713308E0,1
5.6922655,-0.669160037,2.068225665,7.422441516,7.734207821E0,1
81.80698508,-1.386485928,5.471604552,4.083113614,6.966535465,1
3.085510875,-1.077004206,4.790533737,-1.733005376,5.206962567E0,1
51.89493229,10.69439371,-1.220034994,35.51769058,37.11286686,1
49.98761317,-1.067018331,-1.158535734,-5.758770669,5.970274096,1
4.691049375,-0.3193288721,2.097036066,5.126672623,5.548180186E0,1
22.61248567,-0.4180151081,-0.5547317809,-1.088912353,1.291585882E0,1
54.99661892,-2.110379266,-4.321392329,-6.266473879,7.899166233,1
11.23895942,2.768196728,0.8377761948,-1.415077643,3.219817823E0,1
106.639502,-1.840118473,9.41648648,-0.1454588449,9.595697572,1
172.9276949,-0.2753829534,1.994339663,0.3886863515,2.050439842,1
282.9536529,-0.5095658407,1.796564611,4.331561222,4.716961349,1
32.03805796,-5.555619686,-0.9451369214,3.613765215,6.694586837,1
205.2509003,-1.185381105,0.7773640783,23.59303335,23.63558008,1
247.248991,-13.96313344,6.193787141,-9.48598707,17.98099122,1
21.22655392,1.454125496,0.1986416101,1.154008235,1.866996104,1
45.34881433,0.5923954511,0.7839911664,-0.3420432584,1.040465333E0,1
241.8887912,-2.107006592,-6.498766215,-10.55856055,12.57603435,1
181.0115512,0.8485309055,0.005205191374,-0.3812747133,0.93026996,1
90.35188883,-0.487304906,2.756621872,-0.1018210745,2.801213621,1
119.3283661,-1.780428634,-11.92790127,-8.713749391,14.87864857,1
253.562791,0.1243223298,12.38503542,19.37143486,22.99254329,1
29.56084871,-5.706236944,-4.861333578,-11.5472639,13.76709875,1
74.50574446,1.187446123,-2.213797946,-7.735970973,8.133644727,1
110.956944,-0.2535573074,-10.26339076,-15.59597425,18.67179408,1
201.3863748,3.879740729,3.197157531,21.48802636,22.0682913,1
134.0636592,-6.212588863,-7.806715266,5.530832754,11.40750519,1
51.46189967,-0.3357471228,-2.031715066,11.45985388,11.64340342,1
58.16354467,-0.8187686509,-0.02206476063,0.5500686264,9.866328857E-1,1
24.81702054,1.19664467,3.433630627,5.882635161,6.915719354,1
59.49355554,-3.530007944,4.590512184,22.47829677,23.21222918,1
68.77850221,8.698233805,-16.57585065,21.03904206,28.16131011,1
5.758825625,0.7579426977,-6.522984797,1.969145473,6.855752453E0,1
128.2317775,-4.194140837,-2.114387971,5.185029005,6.996140338,1
16.19187933,0.01073282015,-1.15501074,-3.327621776,3.522390054,1
130.4024607,1.653638195,11.98759199,0.4884085679,12.11096296,1
177.5513375,-11.55394961,-5.526044469,-27.44732846,30.28839313,1
26.51661888,-0.1898028128,-0.0427507478,-0.3073494987,3.637532797E-1,1
52.01538629,3.139735535,0.07829304814,-3.703815844,4.856163181,1
71.23775354,11.84360196,-2.695780424,38.833263,40.68857892,1
88.33601287,-0.743205083,-0.4289692819,-2.563718719,2.703520319,1
134.8655992,1.961819935,10.3076308,0.2475424776,10.49558323,1
274.9735414,4.705218768,-3.13160849,39.29209635,39.696535,1
117.4211109,0.8042120806,11.36212936,-7.252223221,13.50331375,1
11.87931121,0.9724615449,2.030212185,-1.124265203,2.516230359,1
65.03824121,0.3494427636,9.648137376,2.206321988,9.903359117,1
214.9875124,-14.16370229,2.520100245,-2.339210781,14.5750909,1
45.24869733,0.3508650988,0.1547787219,-0.325664111,5.031102101E-1,1
14.57187904,-0.3034060268,3.191759967,15.73394749,16.05728777,1
299.154806,3.713132505,0.5952034302,0.7117201656,3.827292217,1
6.84366075,1.286124611,0.2012620398,-0.8624561226,1.561554830E0,1
72.36198167,-1.518676564,-2.284378224,-14.91316799,15.16335523,1
99.57421358,0.32515237,-0.3900329652,-0.3276960915,0.6043463461,1
0.6060706667,-0.890394119,0.6675719333,-2.510289786,2.745907643E0,1
259.1538712,-1.683861283,-8.005854474,8.450945114,11.7621243,1
150.9570363,5.856994536,15.4754608,2.147750137,16.68553573,1
58.93245913,-0.09401789211,1.272543576,-0.06388433933,1.277610162E0,1
2.314552,2.032974264,-5.754612129,0.6103937656,6.133606252E0,1
269.5330165,-0.06603055984,0.8444693564,-1.859920946,2.043720738,1
175.5955661,0.2066419168,0.1683354914,1.971153699,1.989091407,1
46.15328867,28.20867569,-14.80785378,69.99752845,76.90680014,1
75.57405917,-5.257691184,-2.123936474,-9.684091905,11.22212363,1
146.9311052,-0.702044047,11.24505875,-0.3055112072,11.27109352,1
138.7771087,-1.106918342,-0.1978224152,0.1216378731,1.131016223,1
187.9759887,-0.9028478113,1.928441543,-0.1458289737,2.134311843,1
4.800341958,-0.1109292092,-0.07697274685,-0.2473477471,2.817995763E-1,1
202.9823733,4.181229892,2.511763285,2.689240898,5.569888223,1
81.34575417,-0.6881455077,-4.338603609,-21.77476446,22.21345071,1
46.61502967,24.32616894,-12.36447076,13.14019864,30.28708393,1
46.30385667,-3.671751468,-0.5533974463,-12.70037342,13.23206305,1
56.09118779,4.596624278,2.835484147,4.946375483,7.323629941E0,1
111.6997314,6.127495503,-9.833298815,-0.416196624,11.5936701,1
188.4234418,-4.10332393,-2.743999488,3.630103505,6.127352766,1
251.5150715,-11.23554416,4.13402649,-5.487616568,13.16972145,1
278.9786533,4.662894282,6.716562134,0.1872699451,8.178622134,1
300.8110593,13.14046177,-11.81087744,49.47061127,52.53103788,1
45.5948405,-5.784915324,-0.9175537048,-3.965353029,7.073271856,1
11.91179229,-1.898524264,-1.505322108,-14.30684564,14.51055551,1
122.0184617,3.447815387,-6.554219454,-5.772398774,9.389665127,1
79.10913325,-11.77089184,-42.65793612,0.8673207137,44.26065582,1
2.097891,-2.564922954,2.924132321,1.257241997,4.087791217E0,1
8.960810208,-0.05106526919,-0.5514164096,-1.692780626,1.781059787,1
222.4656487,-3.064458773,-8.93161957,-27.22276965,28.81395362,1
192.633484,-1.602869014,6.205826558,19.2483919,20.28748538,1
24.03415967,0.4968595487,0.01063608527,0.01405495226,4.971720820E-1,1
109.4412547,-0.392994178,-7.59320711,-13.07075828,15.1213743,1
39.81253642,-0.2721742938,-0.5622548085,-0.2240091705,6.636184329E-1,1
248.0419805,-15.91835464,-1.264781105,-4.652871569,16.63258548,1
205.2308253,-1.668572276,1.423805636,-8.324554625,8.608691284,1
59.19438538,1.880596409,-4.600708559,-8.334495476,9.703967072,1
192.56322,-6.206199026,-6.326813636,12.33257771,15.18676892,1
85.78858346,3.829663712,-1.10548804,-5.706567312,6.960843228,1
87.07728629,-0.6869275327,-4.407075089,-4.130921034,6.079365827,1
64.62913988,-0.2926562132,0.16143987,1.034993423,1.087622120E0,1
208.4027505,-0.01402922451,-0.3017847401,14.04086866,14.04411847,1
306.4423258,2.372280002,-3.202673502,0.8875944722,4.083216124,1
207.1279579,-1.410068626,1.105353408,0.5511129391,1.874519981,1
60.07574754,-1.267865072,2.348906488,-0.4998480606,2.715638344,1
178.845156,-4.242537071,3.267794235,0.6426616251,5.393571538,1
72.63029287,2.983248841,8.583552949,-2.20608196,9.351147122,1
72.46235867,17.67562889,-10.79145983,6.605345169,21.73738822,1
112.4927085,-0.6569059541,-7.227889448,-11.06211574,13.23043144,1
74.20892667,7.898139406,-3.918954788,18.43415543,20.43420904,1
54.79586292,7.294503853,2.968208633,19.88359014,21.38637898,1
242.982915,-14.91749142,-9.895521376,-9.54065035,20.28489346,1
24.84206812,0.5539560015,-3.510437897,0.4844459099,3.586743554E0,1
173.8102979,-1.163142829,-0.5441477358,-2.892508825,3.164744113,1
32.14364937,0.390809512,-1.263283925,-0.3906963319,1.378862565E0,1
48.03036558,-1.515862299,-0.2408954908,-6.281854395,6.466650121,1
27.23406629,-0.5836316442,-5.243784751,-5.596895181,7.691757932,1
100.6820649,-3.887885608,0.2907323331,-0.02514653563,3.898821891,1
101.985879,-1.86593203,-9.763070247,0.942054854,9.984323229,1
71.2563,1.444600235,9.709752411,1.960315446,10.01044446,1
22.15927317,-6.609423602,1.064472307,12.13536516,13.85946136,1
45.9157735,-0.4892368991,-3.89266366,-7.466089227,8.434137268,1
281.869563,-1.996039449,-7.888459926,-3.253445168,8.763382848,1
44.698159,-1.198718824,0.3512954539,-0.4045033622,1.312995919E0,1
168.9459522,0.6586169225,-4.936652732,0.5200735795,5.007473712,1
53.64625517,1.801913059,11.30123178,0.5259172869,1.145606038E1,1
52.02353267,0.3982698648,-5.740899239,-9.501110308,11.10799892,1
157.7023435,21.46846157,-6.061914302,60.64920589,64.62172872,1
73.23204196,0.9910521823,-8.355923767,0.4007044262,8.424025787,1
274.7225944,-1.446091129,-8.596357182,-18.87858475,20.79397746,1
251.9567365,3.084234056,-14.38456566,-19.8839667,24.73459845,1
39.3794165,-6.858774605,5.071298321,-1.305070467,8.629256322E0,1
242.3103802,4.066260184,0.1546503755,-0.6532094175,4.121294841,1
146.5499832,14.92985009,-24.68242108,7.847834641,29.89499695,1
10.01749129,0.6710498571,-0.1409521034,-1.738138062,1.868501895E0,1
135.9588149,-3.131008565,-0.1741294974,-0.01136936266,3.135867501,1
97.80365008,4.357245702,2.69842395,-6.293766342,8.116561876,1
29.82970171,-2.590169184,-3.619237039,-1.95141233,4.859615543,1
1.027729042,-1.058642487,3.039038588,-1.955602444,3.765748315,1
84.28419958,1.254760731,1.688285286,1.105159426,2.376154258,1
44.835868,-1.144203624,0.3559667945,-0.1024467266,1.202667711E0,1
87.59384508,3.262463329,-0.4039139628,-16.95980456,17.2754677,1
277.7640703,-2.526129309,-0.7026542039,-5.220419862,5.841903436,1
191.1013555,-9.160233423,-51.85712193,5.40636132,52.93675202,1
99.96998287,0.333729541,-5.289901156,2.109883568,5.704913525,1
114.1790377,0.3981327476,-11.18178954,-13.98074057,17.90675945,1
2.656755833,-25.70153931,-8.855891696,-0.911581578,27.19975959,1
37.73747062,0.01324686706,2.525459218,-0.7431420793,2.632561470E0,1
231.0780694,7.607552084,-10.15640426,-5.818600549,13.96006836,1
166.1075839,1.198285399,-1.19400436,0.7764783713,1.861304104,1
72.27164167,-0.6263220926,0.5543167748,-10.44163845,10.47508282,1
54.23997704,0.8061180536,-2.991374424,-6.784113847,7.458039149,1
1.283267917,-4.701526251,0.6350543976,2.047003781,5.166997934E0,1
258.8928872,-2.12223318,0.8407857567,-3.280307862,3.996400133,1
53.38053067,-2.856648729,-3.490643903,-5.035178901,6.760034274,1
44.595584,2.469984637,-0.2750612104,1.712456506,3.018110346E0,1
0.3657775,3.345011981,2.043548076,8.135650967,9.030725915E0,1
184.43268,-3.716763334,11.00783838,12.84033355,17.31649506,1
122.0948337,1.900337193,-0.1666351211,2.452339786,3.106930823,1
8.294647708,-0.8547370671,0.5811155874,0.2794249143,1.070676918E0,1
18.81799979,-0.576375542,-0.2280881882,-0.08512084186,6.256824632E-1,1
161.2757523,-3.600718322,-11.29620551,-15.4343081,19.46245868,1
9.051073208,-0.2707146095,-0.9158049488,-2.807664557,2.965630686,1
37.07910208,0.8765742248,0.3266874468,-0.425636369,1.027751613E0,1
16.85380842,-0.09474945188,1.976928994,2.939247374,3.543501211,1
35.7074865,-0.938540312,-0.9807072884,-0.2976935895,1.389700031E0,1
114.1489247,3.158391076,-7.693795007,-6.743268707,10.70708124,1
37.13917308,0.7458936328,0.04457800269,-1.090412164,1.321871097E0,1
25.70565546,2.736889858,12.02186603,-3.828108938,1.291008315E1,1
68.42808425,1.888050001,10.58560509,2.428960133,11.02359357,1
234.6314509,-0.5772404914,0.6439278397,-2.558231692,2.70044423,1
275.2044124,-7.173923156,-5.994228103,-13.56184955,16.47178519,1
12.07989621,-5.914384373,-6.308801288,-9.886179864,13.13459053,1
62.380527,-3.485622607,-0.7802816927,2.454833039,4.334121563,1
61.61560254,-1.168521682,-0.5269510746,1.465577706,1.947058903E0,1
49.31345275,-6.753544604,-0.1458728278,1.658643411,6.955770379E0,1
6.1728485,-0.3975159029,1.2343405,7.518207799,7.629224329E0,1
71.36824454,-1.1188213,0.2285363773,-12.41389845,12.46630918,1
193.9082731,-6.434756745,2.388330901,10.12426094,12.23155258,1
51.91421813,-1.956672777,-2.834753537,-0.9661874825,3.577417256E0,1
0.6792962917,2.49266891,2.428520422,5.230927309,6.282810696,1
209.9887133,-8.062323375,0.1520378396,-12.846562,15.16767381,1
13.78890979,2.346027319,2.041008923,12.0272899,12.42277199,1
13.077822,4.467855434,3.253684319,0.5713933488,5.556499274E0,1
236.9200715,0.101201562,-12.59441954,19.271106,23.02184119,1
54.17912925,-0.6030663273,2.952849167,0.6007405972,3.073092329E0,1
37.29936208,0.1924870502,-0.2613927591,0.2771018887,4.268054542E-1,1
290.5422928,2.659757775,-0.3310314164,-1.29010101,2.974601458,1
142.9794752,2.229695794,1.735154813,2.781157374,3.964485074,1
16.34444421,0.4305494919,0.5802759272,-0.2096413557,7.523579698E-1,1
35.77756971,-3.402804691,-5.813798815,0.8134903693,6.785359460E0,1
39.98810492,-3.593318963,11.0658603,-0.08906241339,11.63499624,1
53.11563117,0.540529625,1.598093739,1.815959825,2.478666166E0,1
137.3930363,2.771924328,11.40980054,0.7586306226,11.76616477,1
20.29383546,-0.6057076242,-1.497394745,-3.997752451,4.311739488,1
107.4437554,8.310791448,-1.151417188,27.43734375,28.69151178,1
190.5396955,-3.926921327,-15.16434683,-1.291502003,15.71770032,1
75.51868933,0.1713823293,-4.730637199,2.0535053,5.159959711,1
42.44556912,6.943598993,0.8053846666,6.038806105,9.237390898E0,1
190.8405855,7.224150154,9.995164948,0.03315016787,12.33258962,1
169.7483181,0.1450986564,0.5838123232,0.7933315086,0.995623087,1
36.12798271,3.326257913,0.4627761286,-0.3317580792,3.374643222E0,1
48.25119842,15.3819264,-11.08145132,42.93582387,46.9349251,1
284.4492978,-0.8363852884,-0.2199321263,1.347997801,1.601564411,1
69.64174929,-2.362869347,1.389400765,-3.780253571,4.669464969,1
3.284290292,-0.9726784766,0.7975178227,-3.134711022,3.377654703,1
49.32116513,2.110357485,9.661022301,1.451634436,9.994808810E0,1
45.23868533,0.4011222097,0.1446583611,-0.334343791,5.418586893E-1,1
121.9381597,5.99630211,0.6737805068,9.239773682,11.03553519,1
40.31311342,-1.534290238,-1.057256112,-1.377513961,2.317192640E0,1
24.33402346,0.1412833482,0.2901464421,1.351416083,1.389414039E0,1
7.434825167,-10.82892177,-7.293703954,-5.098184988,14.01624608,1
293.061803,2.275870379,-0.1447359829,-4.365354035,4.925124399,1
22.43168096,9.313255641,9.451280336,-2.971202407,13.59748044,1
290.0102855,8.686312501,-1.413291611,30.05064218,31.31278514,1
54.25382092,-2.129369707,1.073753446,-2.202881779,3.246513506,1
28.96952571,0.271762796,0.9712564337,0.07861566827,1.011619741E0,1
25.77982792,0.4350411768,-1.173310479,0.8439841837,1.509379875,1
300.1284821,-1.167918834,-5.989899994,-9.018392251,10.88918432,1
62.40652788,2.563101838,11.85814165,3.9207148,1.274978505E1,1
299.8373831,-2.11824801,-4.726813997,-16.20223228,17.01005809,1
196.1667588,-5.56709777,7.473396492,10.69499246,14.18545369,1
223.9713147,-5.463752911,-12.29732836,-24.34181141,27.81367763,1
71.51881054,-4.48453754,-1.694062043,-13.5856945,14.40666575,1
111.9004854,-0.6913256621,-10.8958069,-20.44008369,23.17312151,1
16.64480621,-0.908876583,1.310903649,1.128589658,1.954031637E0,1
96.35942883,13.25959762,-6.87769444,11.58382537,18.90250301,1
46.20748954,-2.517475137,5.790868374,0.1562013495,6.316346765E0,1
11.61065029,12.75874968,-4.08185003,33.03397581,35.64674951,1
59.63408454,7.702036657,-6.134377091,-2.368374354,10.1272478,1
124.0706387,-0.2324636596,0.7678277081,-0.9715563959,1.259968481,1
28.82935971,-0.4658210662,0.4086706728,-0.4418460933,7.610709262E-1,1
78.11624446,0.004249975607,-1.674482788,-7.371554952,7.559347398,1
61.79883933,-1.669674768,-0.2946625391,0.011818977,1.695517482,1
241.0355758,6.525456415,-0.801749745,-14.05244966,15.51437158,1
81.42587608,-2.797143369,-2.465844516,-3.059489517,4.823367735,1
27.97267258,6.449432087,-19.63982908,5.396067882,21.3643537,1
190.7503185,4.373354781,9.81119751,-0.6768426937,10.76308249,1
1.980499667,3.260241679,-1.736595567,-0.8832915062,3.798044741,1
33.40511662,2.080239939,-1.388447084,6.868855789,7.310018014E0,1
66.11303883,-0.1416896566,-0.1545881027,-0.01559627831,2.102776359E-1,1
13.07047963,2.593658803,6.471048658,-0.8828207322,7.027155126E0,1
273.4879364,-1.483190104,3.390192246,-8.714832296,9.467922597,1
55.18014879,-1.222843193,-0.7446388203,-1.260995325,1.907863113E0,1
40.71063213,-0.96707202,-0.1822150272,1.227587843,1.573341196,1
99.24296958,-1.123321024,-1.717088963,0.289052428,2.072147663,1
298.552532,-3.340225742,-4.943904449,-13.86837112,15.09738443,1
154.2426287,0.1189139476,1.105325487,0.4460924144,1.197866187,1
177.5568637,-6.536775455,11.03700078,23.07592431,26.40157386,1
38.37653117,-5.762564342,0.5818548947,-4.384225339,7.264099032,1
9.496864292,-0.9947587323,-1.55501467,1.66456781,2.485639064E0,1
58.48390867,1.803156177,1.063980995,2.160854917,3.008774123E0,1
101.0230633,-0.4022711876,-3.715864032,-0.9153210917,3.84802291,1
152.282006,0.7035121366,-8.949789208,-9.849017301,13.32654486,1
183.3785401,-0.386256541,-0.02757371485,-0.5797704354,0.697200246,1
92.76866017,0.1260811722,2.433534556,1.950680258,3.121400386,1
13.28140729,0.7805649903,0.5803905326,-0.5314557695,1.108413330E0,1
277.6135013,4.185346332,-2.552934407,18.06862727,18.72190934,1
72.23149067,0.07823384508,3.020073436,-5.181230654,5.997675815,1
15.92128463,-0.2911667812,4.523407198,-8.715366731,9.823624995E0,1
196.0560033,2.028202936,1.009203328,-1.132928438,2.532908477,1
31.06523133,-1.005376837,0.007479465902,-2.637861414,2.822968538,1
207.1781469,-1.38049414,-0.9089437529,-5.171026093,5.428761707,1
189.0352498,5.60696701,8.615641299,1.143856884,10.34290881,1
69.98259858,4.501421667,14.61562306,-4.538906413,15.95245768,1
9.552849458,3.135867309,2.1378891,-6.362233145,7.408255137,1
8.125210625,-1.705605762,-3.884203909,-0.6067375016,4.285354293E0,1
188.1325822,-0.3920403144,-5.70878633,6.626795095,8.755475441,1
16.73006379,1.122551823,0.6108907789,14.22121667,14.27852632,1
286.3966468,3.294021921,-2.690468228,-10.11019371,10.96837347,1
182.0637852,-3.847120575,-3.582589615,2.484499472,5.814466673,1
50.35466813,-1.9423509,-9.803383291,-0.7349236715,1.002093627E1,1
96.96118808,-0.7420464572,11.07429432,0.9294786626,11.1379782,1
291.7970288,0.7715518729,-0.6668805,-0.2850143409,1.058893322,1
237.7532093,-2.93084054,-1.264866913,-8.1289676,8.733259919,1
177.0148278,-7.5529923,4.808753661,4.459391297,10.00289834,1
146.3393632,-2.476616841,4.342356936,-0.3351506702,5.010191684,1
279.5006226,0.4993330671,-18.23660725,-14.30141357,23.18088885,1
65.97796583,-4.802535732,-0.8265186967,-2.173096647,5.335712853,1
90.99376175,0.4758809084,8.773329595,3.229658403,9.361007864,1
282.9034629,0.8266917743,4.766942853,10.58753701,11.64058003,1
127.5841632,-2.376601387,8.438922654,11.16420345,14.19517835,1
45.48897833,-0.435017788,1.049501535,0.008350847214,1.136117812E0,1
121.0517711,4.02756448,9.876791575,2.912314514,11.0568469,1
12.47392321,2.324021908,1.822450965,8.930727285,9.406396504,1
248.6442498,-13.94923227,1.945779999,-11.47176582,18.16503652,1
32.24339788,-0.1466946539,0.05071991801,0.1298479851,2.023668224E-1,1
52.75747233,-0.7999156196,0.7057606834,-0.1261865683,1.074190947E0,1
31.40240258,2.85369033,6.666417582,1.571918678,7.419946105E0,1
78.74808246,-0.7092125872,6.828191913,-1.099699296,6.952447471,1
125.778847,0.295734151,-0.02227350622,0.07932040393,0.3069959668,1
62.38650387,3.26783692,9.752958072,0.6909034932,1.030903957E1,1
47.89182125,0.394539122,0.2756634736,-1.440496075,1.518775958E0,1
136.0009284,-6.212466656,-0.9432941714,-1.156320224,6.389180097,1
111.6742542,3.123296088,10.66590373,0.6995608807,11.13579213,1
46.45010433,-0.4218407951,0.4992773724,-0.3074898319,7.223417112E-1,1
40.52315325,1.58615811,1.557326367,-0.1143610132,2.225812527E0,1
70.71579067,-5.335146326,2.931184356,-11.10281003,12.66207007,1
195.3737798,-2.960222214,-5.542954617,-12.03476031,13.57655026,1
25.36525046,0.8354910298,1.897756525,1.052503788,2.325357889E0,1
155.8373249,0.1484199845,10.2957399,0.6453396499,10.31701274,1
0.1855575,1.230790217,-0.8163780168,-2.065542378,2.539248499E0,1
50.71280379,0.3626539627,4.905792298,2.967485917,5.744935912E0,1
250.0696239,-10.06257516,-0.8771671325,-19.13687732,21.6389675,1
69.42091929,4.615047978,-1.529411175,-13.26783518,14.13057736,1
39.36201662,0.6641650531,1.956940287,3.439060936,4.012215177E0,1
24.80065792,0.09717867762,-12.56168331,3.395128466,13.01277175,1
12.18008837,4.296465064,4.962133729,6.579599878,9.293735403E0,1
99.10746062,-1.419206655,0.4927238131,1.417814287,2.065701246,1
23.16313467,-5.395176181,-8.429145525,-2.944000576,1.043194899E1,1
103.04899,4.572348686,-6.319839077,-4.788233735,9.152809446,1
100.0000709,-0.02167314336,-8.951174414,5.184658876,10.34430668,1
27.637948,0.3461098507,1.342611346,1.387644846,1.961620624E0,1
114.5203185,6.199250779,-5.584499084,5.396219324,9.936625345,1
38.60089312,0.2821427733,-0.2600221717,-0.5500849986,6.706784475E-1,1
85.47125492,2.240879471,-2.190683756,-10.72531378,11.17376355,1
105.21539,-9.001521864,-15.14111935,-24.35381224,30.05643128,1
36.27815971,-5.643745412,2.814317518,0.5578243732,6.331146294E0,1
22.38169333,-0.5526381853,0.09161125124,-0.7439343039,9.312571255E-1,1
181.2823499,-0.4438585588,-0.001489870548,0.005454282761,0.4438945698,1
247.218878,-7.339429765,8.077288738,-11.38402835,15.77041294,1
267.465215,-8.041839409,-1.714814104,-20.78279602,22.35031048,1
217.135593,18.19720169,-7.598004166,15.48123317,25.07062818,1
235.2537949,-1.670401139,1.346488196,2.575521909,3.35210136,1
257.3069078,-7.395954798,4.430141477,-10.42813723,13.53042302,1
43.20215867,-0.1026455319,-0.1187364846,-0.2225146222,0.2722998625,1
49.15519317,-0.7120341611,-2.823792347,-0.8981802714,3.047543874,1
160.8621266,0.2279844001,13.32501861,-1.338074637,13.39397407,1
53.27582017,0.1604534447,-0.1670777553,-0.5723731229,6.174716803E-1,1
1.513554917,-3.514849622,5.062680695,4.345915552,7.541345083E0,1
46.10977887,-0.8637525965,0.2453518,1.149216442,1.458411631E0,1
172.1766655,-2.520744608,-9.577097214,-9.816312654,13.94399292,1
163.4597804,0.6609020144,9.866886392,-2.963308959,10.32344122,1
234.0191442,-0.2956234559,0.1228308512,0.4468442202,0.5496820925,1
238.7569915,-5.326338081,-6.960988612,-19.59502771,21.46602783,1
35.20446538,-2.058689003,2.830541203,1.799018833,3.935305919E0,1
81.95742358,-3.337258865,1.58689866,2.630988597,4.536258931,1
53.32803762,0.05149145812,0.1465195298,0.1162677902,1.940039740E-1,1
62.370498,-5.479706454,0.8103083146,-1.12195665,5.651775749,1
52.35667217,1.657986915,5.612285053,10.49943818,12.02018578,1
31.55296137,-5.552008445,-5.488702396,-2.061570949,8.074696684E0,1
76.73221846,-0.9640495943,-10.63844287,-2.421305689,10.95301692,1
267.696086,-1.266418033,-2.006930765,-17.77020994,17.9279655,1
244.7796851,-2.968648636,-0.853566016,-11.78670505,12.18473904,1
45.368929,4.575047468,4.828667523,11.10559096,1.294531730E1,1
155.8072359,0.4557319149,10.29669416,0.7774574876,10.33605546,1
52.74519654,0.4759159917,-4.991685557,1.104022143,5.134421644E0,1
207.8807877,11.96017907,-9.356557782,31.63189301,35.08799955,1
215.3488712,0.1733847083,-10.96194358,-19.24724936,22.15064056,1
145.6772293,0.9644289324,-1.224713352,-2.461783624,2.913833312,1
37.06270508,-0.41420477,-0.3813007334,11.84121747,11.8545935,1
272.5945653,4.659711058,2.156952777,-2.823159678,5.859657242,1
5.119631917,-0.05494091336,-0.8272681636,-3.333506999,3.435063323,1
53.94874617,-1.530716858,-0.1367599422,-1.393053521,2.074221660E0,1
269.6434325,-7.054007288,-2.720519993,-18.03695056,19.55739843,1
15.81443142,0.5234997556,-0.8599552685,0.1529959059,1.018323527E0,1
49.80708817,-4.149142712,1.683161664,-0.2230244994,4.48309696,1
20.41418646,0.7611339618,0.03887638271,-0.3279024982,0.8296724229,1
114.4701305,6.387208942,-7.365211308,47.506307,48.49630894,1
31.73032788,1.31112175,0.5770166892,-2.546543108,2.921792311E0,1
191.9538754,1.253434583,2.190859904,-1.615474588,2.99678553,1
52.18453654,0.5542474853,7.410886833,-0.5045457137,7.448691181E0,1
191.0010595,1.873383283,10.91227266,-1.15610914,11.13210887,1
41.90477683,1.097042468,0.3705094045,-0.4214392376,1.232229859E0,1
39.3293575,-6.169252809,-2.213261172,-14.31689817,1.574584956E1,1
168.6149762,-34.03141256,-133.1053061,-5.885361718,137.5128977,1
31.17251812,-1.389052564,-0.862854318,-2.217729614,2.755414531E0,1
125.0096862,7.524170204,0.7306358352,25.51572883,26.61201578,1
298.522418,-4.01968448,-5.306299088,-13.93002299,15.43891881,1
247.4296725,-14.62767885,5.639454725,2.782779976,15.92219528,1
62.758761,0.1533701277,0.146124258,-0.4095600343,4.611009830E-1,1
0.4322085417,2.844504939,-3.324424519,6.562818369,7.887559298E0,1
216.43295,12.23473625,-9.510084615,9.695461231,18.27929017,1
34.84403625,1.284227921,-0.7039503855,0.5713361923,1.572009078E0,1
16.45519442,-5.048517569,-2.01901082,-2.85021416,6.139027211E0,1
266.5718467,2.296486346,-2.65799747,-7.331399199,8.129465807,1
298.733214,3.347389751,1.097348569,6.2992522,7.217324318,1
87.61932258,-0.9907767054,-0.872997483,4.003393845,4.215557539,1
30.95940717,0.17055144,9.75619743,-2.062804127,9.973346327E0,1
148.4355336,0.9435148307,11.39350318,1.246186666,11.50022244,1
101.4813723,6.70892567,-0.4898545843,26.5059969,27.34625226,1
229.3114176,-1.754041027,3.497541863,-2.216370136,4.496860637,1
49.61380375,0.05103976071,0.4340768248,0.3927720934,5.876203403E-1,1
110.414909,-4.56086797,-12.39509263,-23.37383994,26.84727606,1
27.147366,0.2421521305,1.9366791,-0.2563371833,1.968520344E0,1
158.3848284,-1.25342742,12.26910618,-1.805551927,12.46443198,1
40.29049413,-0.7314647511,-0.8893229091,-0.725972169,1.361238961E0,1
47.29108896,-2.571063407,-8.959501433,0.932879988,9.367673033E0,1
83.43359967,-6.402688276,-3.789329034,-7.371754342,10.47359507,1
38.85142662,-0.5025763714,-0.1334439862,0.3185130394,6.097875555E-1,1
116.2777557,2.492915662,-0.1132219756,-0.8250772119,2.62834551,1
14.99840071,-0.9337618212,-0.9027469468,9.956795518,10.04114735,1
50.77069567,-0.4451960362,1.964755383,-2.590965575,3.282006374,1
138.550493,-2.162249331,-3.404658258,-0.920659892,4.136983764,1
5.226467667,49.41681221,4.296850981,30.66796782,58.31816619,1
36.86212008,10.83694765,-2.291781092,4.638372813,12.00858848,1
48.81056342,1.424294902,-0.8591004056,-0.2684433317,1.684853494E0,1
282.6324409,1.51194788,-1.948712816,0.3663362467,2.493525673,1
92.20655017,-0.5622893071,-4.738111987,-6.334580492,7.930497114,1
64.87380946,-5.016159078,1.046382338,-8.515333484,9.938192604,1
129.8408075,-1.470354881,1.435322458,-1.240433152,2.400160087,1
160.7518016,-1.341115043,11.0000838,0.4562139447,11.09092261,1
75.73933133,-2.129850786,3.531625283,-0.42130022,4.145616407,1
26.26632188,-0.8937764409,0.3913962436,-0.4530030559,1.075750489E0,1
32.04809496,-3.643699743,-6.860544557,4.308285795,8.882845599,1
97.88788167,-2.723113818,0.7644392467,2.482254726,3.763150908,1
48.08201358,-0.1608636269,0.3708771944,0.4294347203,5.897806192E-1,1
7.3407815,-0.5799072602,10.02930801,-6.698749176,1.207462430E1,1
28.65665288,2.234313633,0.9296429694,0.8571392494,2.567310101E0,1
11.03800671,3.784932805,6.588366609,0.7514070455,7.635240891E0,1
30.68293167,-6.543157107,4.975920879,0.6895785872,8.249134024,1
43.10760525,1.775305889,4.863150893,7.764781959,9.332405182,1
67.40511287,-0.1927585803,8.306596656,2.579603266,8.70006074,1
33.60500621,0.4445048954,-0.0809003216,0.09315197429,4.613098247E-1,1
45.59676854,-1.755860827,-5.303551481,1.809082915,5.872264176E0,1
101.5917863,0.964623937,-1.34699091,-11.30892789,11.42964277,1
306.4322878,2.123270769,-3.295289013,0.7918773061,3.999284699,1
44.10735908,1.089141564,10.45038004,-0.7122668072,1.053109664E1,1
283.96748,0.01297255956,-4.929072402,-12.32264212,13.27190385,1
191.9237864,0.6784419072,-6.49303185,-3.106996974,7.230019103,1
196.2967145,1.013933141,-1.614051814,9.420683611,9.611581731,1
85.30718046,2.310793898,8.838374607,-0.3128046951,9.140814018,1
114.30196,1.266376371,-0.9024230111,0.5940842,1.664635828,1
231.8509789,2.469523291,-7.31040594,-10.66500677,13.16369818,1
39.01442679,-3.201306131,5.854636354,0.1391170644,6.674165216,1
2.827399833,-4.312979355,-5.29689735,-8.970809948,11.27538663,1
152.1515176,-2.394361427,-10.19735231,-13.7748835,17.30509683,1
75.15763933,3.826643625,9.662773542,2.348956482,10.65504531,1
87.37841758,-1.164622686,1.185296686,-5.856316844,6.087505335,1
237.2111675,-6.248823473,-2.064418251,-3.441499225,7.426542562,1
8.642385125,-5.781502304,0.5298033464,-1.767669133,6.068864362E0,1
64.22866588,-1.861513289,-1.395468421,0.8643902354,2.481881206E0,1
79.37836017,1.44795566,-5.408790838,-18.29972443,19.13717608,1
171.4232571,3.838235438,10.24405051,-0.01492736141,10.93950844,1
17.75614583,-1.187693752,0.9434008831,0.5222417271,1.604168974E0,1
147.704835,2.730222278,-1.153010116,0.1237978345,2.966289251,1
14.14591608,-4.706774127,-2.682945493,13.53444716,14.57851773,1
148.4476224,-4.427575134,-0.8013493569,26.29941945,26.68154879,1
1.673043417,5.584017273,-5.503176593,-12.29662201,14.5833163,1
144.0310532,-15.22921116,2.307826436,25.65183798,29.92109168,1
29.83054421,-1.993812098,2.593840066,-2.703389406,4.244008394E0,1
110.3403442,3.595783857,10.76940413,-1.102976661,11.40729084,1
15.15034763,0.4667599098,0.5470806992,1.708967911,1.854112571E0,1
298.452153,-1.91479078,-5.026356037,-11.58731499,12.77484041,1
49.50366687,-1.133148001,-1.028636038,0.6338925558,1.656483101E0,1
62.618602,-0.1442411622,-0.1333483842,-0.8045505613,8.281841040E-1,1
43.97720708,1.479737616,0.7798349655,1.081119842,1.991629006E0,1
95.89038267,1.794240927,-1.320620845,-0.4975857729,2.282746486,1
149.3108605,4.584967854,-1.589450677,21.14760146,21.69721944,1
146.9712232,-0.9170148839,10.10560014,-0.6582427007,10.16844894,1
24.16431367,0.1568924904,-0.08718607843,-1.076377677,1.091240381E0,1
186.8015773,7.198703656,5.270180837,14.72641026,17.21810964,1
36.64147808,-2.676550393,-0.8004560485,-6.507815366,7.082112166,1
1.676469375,1.062154617,1.047792394,-5.893450171,6.079374660E0,1
28.47769017,-1.088039802,-0.3229735878,-2.696410754,2.925538156,1
284.5898288,0.2515062869,0.2738727273,-0.6674321848,0.7640205523,1
37.14918508,0.641930577,-0.2625177634,-1.138242388,1.332886407E0,1
34.56614021,1.185281922,9.43708622,1.491235288,9.627422929E0,1
81.23533917,0.9073747256,-3.355862366,-7.628483947,8.383251663,1
269.4828265,-2.895891439,-0.05944849536,3.458842067,4.511464263,1
103.249577,4.591113278,5.357588525,-1.600851578,7.234970747,1
15.91392421,0.5560209458,0.128734054,0.04770852886,5.727196980E-1,1
127.2832772,-0.03478179229,-0.9963718329,-7.804093959,7.867518613,1
43.82467312,-0.7046833339,-1.248286402,2.529725931,2.907629761E0,1
76.69828692,-0.3719864112,2.256989281,2.023811384,3.054208085,1
143.3706266,-0.4958927116,-1.165284006,-1.322229706,1.830870774,1
231.3792029,61.59727811,-10.52746505,21.24513302,66.00308984,1
267.926957,18.99841993,-5.913831226,28.22807442,34.53603256,1
33.07107621,1.157294955,2.667738639,-4.670896196,5.5021298,1
138.7871377,-0.9002075011,1.089111743,0.8177897539,1.632580171,1
83.77488167,-4.489432829,2.359215276,-16.61807457,17.37473183,1
188.0663277,-2.493514125,-6.792284161,-13.11153208,14.97548031,1
42.47307479,2.245646414,6.887783811,-0.1002019805,7.245311179E0,1
145.7375921,-0.6620194173,-0.4614874023,0.8198343059,1.150377599,1
53.17977367,-0.02838136151,3.518357951,8.0880903,8.820252427,1
47.06086929,4.793766662,3.72604345,7.280625486,9.480037240E0,1
42.70643817,-0.3640498392,-1.886193656,-3.237482854,3.764512455,1
36.01308767,-0.854138166,-16.85795308,1.299160686,16.92949948,1
74.90153067,12.16402587,2.657403686,3.681015796,12.98365114,1
18.15662783,0.1391849287,0.3130078858,0.6415693653,7.272947349E-1,1
35.98539338,-10.24888031,12.28442355,-3.134384748,1.630248378E1,1
10.64571858,-0.01161593243,1.488929147,6.201700178,6.377940893,1
56.53665438,-0.5531999566,-2.773116868,0.5672132474,2.884083602,1
78.01322929,-3.648327229,-2.600637162,-5.592687525,7.166014162,1
104.1121021,4.043335883,-17.99677902,-13.1960302,22.67967886,1
24.34146513,2.276256442,-0.1167630494,1.158637476,2.556837460E0,1
105.7775,11.2095182,-20.4442586,49.97149312,55.14318755,1
191.4992228,-25.53500827,-3.098052781,10.75704077,27.8809703,1
10.6148085,2.251656036,11.64448205,5.076951994,1.290113788E1,1
57.52614633,-0.9977034632,-1.739335134,-8.366256967,8.603194438,1
30.30110021,0.00685498327,0.2215463233,-0.4492895257,5.009898623E-1,1
91.47379846,-1.737987204,-0.2745497252,-3.456144161,3.878261149,1
54.91999233,0.4434863104,1.466427891,-0.5509946792,1.628092751E0,1
38.67740708,-0.8666664103,-1.590123107,3.939061609,4.335413305,1
192.2647942,2.168429984,9.359288431,3.584128602,10.25399173,1
206.6160329,5.062716948,-7.781452371,34.96259803,36.17409798,1
47.71157996,-1.755817411,-3.969356618,-2.14665086,4.842189242E0,1
94.89665104,-2.377263876,0.6016464771,1.823023846,3.055614171,1
99.47383658,2.881607276,-1.000176616,-2.730204737,4.093657492,1
303.0394744,3.415892806,-2.450598485,5.735565408,7.111291525,1
159.2180307,3.593313701,-6.919855789,-7.213248605,10.62201784,1
20.96053625,0.06662785292,0.03209156603,-1.531798008,1.533582172E0,1
26.03350238,1.74146966,-0.6729595578,3.63488068,4.086312359E0,1
296.9063179,-2.528275529,-3.989064658,-11.74640136,12.66028273,1
58.12150913,-7.161047003,0.6285148716,-7.966041368,1.073002517E1,1
185.416375,-5.229026379,-5.627752107,-11.56142118,13.88094991,1
40.61045517,1.915643157,-10.07361821,0.9267333949,10.29593645,1
92.74858517,0.5957118456,2.808425864,0.2887015951,2.885390276,1
183.5292881,1.264522073,-8.504995022,-10.70682606,13.73208217,1
68.70889925,-0.2821146335,8.242784237,3.762571591,9.06531994,1
16.13781771,2.43105826,-3.6388907,-9.5808751,10.53303078,1
2.13794,1.90725635,1.474889105,3.371071851,4.144520489E0,1
41.67447317,-2.622427688,16.08058213,2.703085935,16.51571743,1
109.1501608,11.13329507,-10.72971323,4.612741544,16.13550091,1
34.92648242,2.724665084,-1.611993448,-5.30851109,6.180826214,1
24.59176713,-0.4712937677,0.1974417615,0.8639816612,1.003775560E0,1
144.613238,-5.820514927,11.29671071,18.17803101,22.17960501,1
210.0589773,18.95596212,-11.3540567,38.13228943,44.07169841,1
4.851244375,0.3180005309,0.5653395072,-1.349326873,1.497135968E0,1
16.41252233,-1.346773978,-0.04352813512,0.9745548481,1.662964822,1
73.39250796,7.226729361,8.705225905,-5.184363592,12.44524814,1
38.25154579,3.786442848,-24.42098037,8.227538207,26.04637819,1
1.960440667,2.117708751,-1.46902347,0.6000617355,2.64627935,1
136.7336778,-0.5441842078,-3.862822103,-7.662278515,8.598141839,1
47.96010158,-2.323751913,3.607304334,-5.634001027,7.081979602,1
207.1078819,-1.379291222,0.7175860924,5.263029107,5.487882056,1
47.90154867,-4.861001164,-3.055400851,-5.32699063,7.832090133,1
180.8109592,-2.898539643,0.193389641,-0.6774806249,2.982936743,1
2.317264125,-1.388562421,8.588028992,-1.928966038,8.910850551E0,1
58.34176713,-6.64459285,-0.4320244521,2.961124731,7.287353356E0,1
166.2544363,0.9948384006,-0.4862421745,-0.9554940945,1.462567557,1
45.80943387,4.316156732,2.500415009,0.6679578495,5.032638656E0,1
106.749825,2.3510454,9.984125404,3.25492159,10.76125871,1
56.14551737,-4.594466071,10.99934354,14.87419629,19.06138485,1
26.65424904,3.355201339,9.390154713,-3.383063321,1.052983851E1,1
94.64570904,2.171859961,-0.3067544349,-0.01203941703,2.193449093,1
6.4632005,2.072937644,-0.40880779,3.761995055,4.314719119E0,1
230.3954994,4.803938771,-2.339243818,-4.757612159,7.154352718,1
40.60324825,0.5480010509,-0.3228288692,-1.303023942,1.449963801E0,1
97.61309308,-1.094422769,1.249219617,0.7983805794,1.842748599,1
124.3113457,-0.06522802949,-0.2349317694,0.4640993536,0.5242478823,1
31.84751104,1.914891498,2.68659094,4.039519697,5.215582394,1
19.40869979,-5.417666327,-6.489254549,-7.597275018,1.136574330E1,1
0.8672620417,2.052123895,1.809449535,4.928440903,5.63691847,1
184.1006721,-0.1644601031,0.4948065913,-0.7735233347,0.9328553144,1
29.4104625,-0.1212757111,-0.1463768578,-0.6178378558,6.464190581E-1,1
4.449908583,-0.9217742251,0.7139573103,-0.05267873526,1.167123735E0,1
57.1824295,-1.50851001,-2.944823571,-1.648704899,3.696730469E0,1
37.31801883,18.65154672,-55.66651744,-1.816766741,58.7362069,1
272.2532783,6.252871501,1.725688317,4.511570095,7.901307923,1
27.83818521,0.2709544185,0.5307190204,1.07368328,1.227955521E0,1
4.989252917,0.2791523427,-0.6401856217,2.250630142,2.35650158,1
32.11324388,-0.1850066341,0.1721350121,0.3437309476,4.266249892E-1,1
11.46811358,-1.297731773,0.05181393206,-2.461041028,2.782717265,1
24.35567933,-1.784353285,-2.771593668,-9.914073422,10.44770309,1
29.44760025,0.9961860377,11.27280496,4.431900612,1.215361104E1,1
58.01094317,0.2995437947,-0.09039532274,-3.241877621,3.256941558,1
30.07082821,-0.5798294923,0.02124234974,0.7501837349,9.483823668E-1,1
21.67084333,0.06692825362,12.17829776,-2.694588761,1.247301985E1,1
299.6968521,-1.465794053,-3.40263746,-7.570712872,8.428652756,1
258.7423192,-5.920919806,-0.793591125,5.176542941,7.904661602,1
2.474751,0.4006705123,-0.7342050487,2.511566818,2.647179970E0,1
271.0286581,-1.108167234,-13.19594015,-0.7405907929,13.26308206,1
44.01489812,-0.3935493346,8.984135168,-3.032255525,9.490212820E0,1
215.2484944,-0.4230555542,-11.06894412,-13.16097614,17.20208688,1
277.1216475,-1.438359794,-0.6330352078,-4.956864803,5.200011649,1
134.4952797,4.177413415,-10.09461205,-10.31155428,15.02265379,1
48.12219254,-0.5016519266,-2.895668953,-6.08337943,6.756038679,1
45.40888433,0.1518362568,0.8996514308,-0.6632145882,1.127954137E0,1
172.0963635,-2.404086516,-10.71531972,-18.81348653,21.78405344,1
154.0219789,0.4068673915,0.895197022,0.8932159853,1.32844028,1
83.14250529,4.544501613,0.3248637003,-0.804114359,4.62651394,1
47.84137367,-0.774327473,-1.050109353,-3.746999871,3.96765935,1
48.60263637,-4.772377548,-2.720863517,-6.988291016,8.889032403E0,1
182.3856084,-0.9578141235,-7.572173506,0.5846464285,7.654869754,1
284.318806,-0.6738401484,-1.326588659,-2.936148934,3.291636156,1
35.89800988,1.116281488,2.822147525,7.222838624,7.834538837E0,1
139.4639221,-5.316190823,14.41595936,30.52246103,34.17166072,1
118.9670085,18.78051759,-0.9383161443,46.47961078,50.13923111,1
46.29992833,1.37285753,-2.18118744,-2.164188999,3.365416834E0,1
9.402279458,17.55793028,-28.21752136,10.76420011,34.93390089,1
158.5753894,-0.9801328725,9.902747365,-0.316900962,9.956178587,1
162.2192923,-6.777942696,-13.32934204,-3.579886447,15.37619762,1
83.25292067,4.950733413,-5.206759597,-9.405415362,11.83562187,1
3.048171583,0.3831288654,0.3782844472,0.6583473659,8.504752228E-1,1
41.50430633,-0.6013722427,0.2076498306,1.096778612,1.267947298E0,1
1.566332375,-0.9214416647,6.995836263,-2.514730747,7.490971265E0,1
42.68638017,0.4127838235,-1.522655594,-2.154468003,2.67031888,1
20.74974033,0.2685892197,0.2220983005,0.04621292073,3.515728347E-1,1
161.8550512,0.0960974909,1.819458799,0.1408395445,1.827430115,1
176.7237348,-1.431226776,-15.1234935,-9.508611701,17.9215558,1
116.06612,-2.555000521,-9.345839251,-23.14992199,25.09564956,1
155.9357147,4.668348857,-6.020079812,-6.253952066,9.856305517,1
85.07978371,3.177324361,1.629417858,-2.77215617,4.520535641,1
94.58548204,0.06649614438,-0.8331677118,2.681432526,2.808677725,1
44.24090287,-2.500082887,2.650986367,12.52894475,13.04808797,1
237.5022643,-2.808168879,-0.7996500099,-8.953246082,9.417317452,1
140.4319791,3.678807887,2.893109919,0.6085618329,4.71954023,1
110.32457,2.303847406,-12.32160599,-14.55564232,19.20927928,1
65.61660583,-5.590688946,0.006527319923,-4.58806337,7.232300532,1
4.997884167,0.5697319356,0.9281630391,0.900778774,1.413323567E0,1
1.483517917,1.826729227,5.497332301,-2.23373242,6.208636132E0,1
40.91121613,0.2755687122,3.529814108,7.467979047,8.264758726,1
27.137354,0.490441389,1.899028879,-0.3483021911,1.992023558E0,1
182.6864964,0.1731685441,11.21333877,-0.490838086,11.22541206,1
11.26899542,0.9477003407,-0.332035895,-2.264119669,2.476816837E0,1
170.8015032,-1.699558718,-6.902628722,-8.020008829,10.71705765,1
22.28157333,-0.8643012115,0.170997144,1.5133249,1.751116461E0,1
26.06654775,-0.3652147508,-0.3260442531,-1.299292248,1.388469307E0,1
304.5150469,-1.409366668,-3.232344906,-3.768186087,5.160774591,1
175.1578569,0.6227717364,2.940205733,8.064840016,8.606642718,1
140.5423031,0.4546949843,7.654043881,1.221344186,7.764200981,1
37.39974825,3.902191406,4.405874071,5.276470102,7.904426661E0,1
268.9508194,-3.061318818,-3.518400051,-0.1616597253,4.666577514,1
32.48122279,0.4411778297,10.66400807,7.862235163,1.325633613E1,1
160.2202356,8.483657947,-15.42841878,7.059606582,18.96962317,1
3.996361167,-1.935241709,-5.16305283,-9.745217528,11.19694332,1
116.5479298,-4.78750751,-11.55623119,-21.29614413,24.69802547,1
305.5790669,0.006388375461,-2.661428617,-3.362141984,4.288034726,1
108.0436145,2.350843232,10.68947269,-1.018023634,10.99216368,1
56.7018825,-0.1279271382,1.074739579,0.944060449,1.436203554E0,1
53.96272367,0.1151019285,5.685047804,7.818383385,9.667478251,1
31.09448867,-2.720350424,1.919619849,-1.276940682,3.565925448,1
26.48404404,3.121943335,-0.7416772056,5.225071322,6.131719627E0,1
0.5059486667,0.3943947688,2.474499564,2.256413623,3.371957557E0,1
117.4914705,5.786778831,-5.790404105,-9.716206568,12.70512727,1
192.743899,-1.444931188,5.166782184,11.25613221,12.46932141,1
30.28107621,-0.2666571535,0.279501586,-0.478701057,6.151275283E-1,1
20.26374846,-1.24479883,-2.424964,-5.425972297,6.072161879,1
4.694455708,-20.78669962,-11.84373177,-3.654433769,24.20156502,1
103.408608,13.1100773,-3.075055974,-22.73581516,26.42437108,1
19.856053,-1.446074464,-6.395025499,-14.70402127,1.609955664E1,1
32.53995658,24.61048162,-44.24807004,-3.728339067,50.76877012,1
190.6058662,-0.1964018342,-3.919165581,7.927779527,8.845796785,1
23.48042738,-1.042844772,-11.99293751,-0.770819436,1.206284535E1,1
40.53077813,2.783911705,-3.507683274,4.67821808,6.476089154E0,1
34.62377425,1.687147418,-3.076075729,1.559575206,3.839398797E0,1
121.8779337,12.58294145,-1.400111695,51.33204197,52.87030604,1
13.81204204,-1.430223248,0.085338943,-0.143702926,1.439955487E0,1
7.163256958,0.2108932811,-2.782617424,-1.214450611,3.043406971E0,1
55.98900667,-0.3565730046,1.271828461,0.5551736842,1.432797879E0,1
27.337592,-2.056708697,-7.993810964,1.225778714,8.344674820E0,1
57.34901717,-1.934274433,1.106168071,-0.2256563312,2.23963081,1
0.8298632917,2.296555343,-0.6946745818,-0.6454285276,2.484616108,1
8.635065708,-0.1685525693,0.8340561962,-0.02393265367,8.512534752E-1,1
237.7632473,-4.586160686,-0.6566715539,-8.553248,9.727391156,1
71.52884854,-4.642498316,-1.088541639,-14.13670569,14.91925472,1
58.803247,-0.3489192916,-2.489567839,1.955988361,3.185213205,1
299.094578,5.263511503,-1.697793298,27.34757028,27.90119452,1
169.3259645,-4.36741284,-11.82890674,-10.13066832,16.17491175,1
12.86756492,-1.52338328,-5.448111024,2.237630028,6.083551470E0,1
8.448665667,-13.88865979,-12.22072398,-6.00228615,19.44912349,1
30.81924017,2.168932553,3.322727657,2.79688463,4.854621626E0,1
138.801434,0.4632447099,-9.447567939,-7.008576177,11.77247959,1
33.88533721,0.8825627969,0.3675162148,-0.4395656061,1.052237226E0,1
209.7176943,-2.867507593,1.454079303,5.837078335,6.663965028,1
7.403552958,1.03162148,3.286044565,-3.071897893,4.615071876E0,1
96.04852083,1.056983339,9.019108534,2.413722435,9.396147537,1
13.938872,1.341745081,-0.5106174624,-0.09968684077,1.439078705E0,1
258.0798217,-9.896307242,3.879215357,0.8007346684,10.65956776,1
23.69375967,-1.273781431,-1.092230063,-1.335571298,2.144583022E0,1
270.4866131,14.19011884,5.778385738,14.63966681,21.19124958,1
17.2128535,-6.342484758,-10.58591382,1.042299958,1.238446905E1,1
59.25503471,-0.1099158137,1.575317665,0.05218647279,1.580009702E0,1
29.21732425,-4.432849323,-11.62910855,-1.85318817,1.258255241E1,1
54.87980679,3.192239438,0.9627328013,1.492777784,3.653167474E0,1
21.24086725,-0.4541257578,0.3583378404,-1.149707608,1.287036828E0,1
149.0974826,-1.2982646,-5.890079252,-0.6919091412,6.071018269,1
178.3197275,-5.62294862,1.407141218,4.503841245,7.340448457,1
162.1158202,0.4121795869,0.4429026121,-0.6446029007,0.8840631399,1
122.7010224,-3.111946935,-10.12427147,-8.956366741,13.87089008,1
44.33116487,0.9412426027,1.366966461,-0.0560584259,1.660625632,1
69.22038533,0.3683908121,3.653155275,0.3557486933,3.688876846,1
252.0270015,6.078781765,-15.47884751,-10.82008312,19.83987164,1
145.2962931,-0.3267198258,7.837167565,2.331240442,8.183069307,1
15.53346413,1.662709273,5.489021069,-1.066156159,5.833578951E0,1
157.6421175,12.50061967,-11.3530463,-1.081668822,16.92120444,1
7.954229708,1.985728177,2.16626593,-1.715560209,3.402788753E0,1
269.2419184,-6.4751306,-1.641502299,3.597281329,7.586980891,1
49.20533817,0.8306447844,-0.2812329465,-3.509763129,3.617664986,1
192.4453282,-4.71374927,2.256203123,-1.210124549,5.364166864,1
22.09876088,1.238976611,0.4833460486,-1.295421392,1.856556767E0,1
65.76262446,0.3373433395,-0.4195105335,0.1056474924,5.485900192E-1,1
61.75576654,1.354289989,-0.0128276217,1.20184723,1.810718832E0,1
135.2982914,1.218710381,-9.180033849,-5.365710892,10.70276272,1
121.5131261,3.509709334,2.645732936,-3.749280577,5.777115822,1
43.90480867,0.6550625463,-0.278411665,-0.05421772242,0.7138344039,1
7.243355958,-1.210208968,-8.267734306,-0.7395403406,8.388501429E0,1
290.9438088,7.413059658,-0.8805593216,7.280772836,10.42777499,1
179.9985607,0.9850000218,9.358106709,0.1910612798,9.411742168,1
86.96200308,1.682517447,3.967101347,-0.710343731,4.367304234,1
49.61634408,1.53043166,-2.109654357,-9.407646074,9.76200119,1
4.086624167,-1.030282322,-3.16884239,-8.788910086,9.399360843,1
116.1373437,-1.542197135,-0.4355251801,-0.2411316452,1.620555046,1
37.72745963,-2.788117899,5.726680564,-1.540814415,6.553058886E0,1
14.41127004,-0.3616159357,-5.442587745,-15.25135808,16.19742111,1
118.8553208,-5.479695929,-9.423949281,-3.910746175,11.5815294,1
109.818816,4.479671779,-5.558787122,-15.15836513,16.7554053,1
43.22223467,-0.06936274186,-0.1299672318,0.2059108686,0.2531836431,1
54.63953279,-1.31950695,-1.898807269,-1.550049507,2.783742285E0,1
25.57597175,1.308727316,-0.118963649,-0.2020955604,1.329572169E0,1
47.64153525,-0.7608500795,-0.2673519489,-1.782351784,1.956309737E0,1
31.40622533,0.2936081764,-1.357697162,0.03293736577,1.38947192,1
115.2346961,2.497543733,-26.63735577,7.35617619,27.74706787,1
20.37985,-0.3506385192,0.4571014059,0.1180529451,5.880693533E-1,1
44.47779408,2.273163849,4.155642477,1.076274839,4.857469074E0,1
6.50324875,0.09347245652,-1.229725585,0.8486461687,1.497051246E0,1
144.4136961,-1.821118823,-4.225306789,-0.1754269946,4.604396362,1
92.24670017,-1.85664329,-5.47799439,-10.19157175,11.71851875,1
1.093030917,3.354549374,-2.260779154,2.704761747,4.866195639E0,1
156.2368447,25.40370086,-15.57300171,8.080702928,30.87335679,1
253.633055,-7.989082321,0.4350495091,-8.236705472,11.48294481,1
25.74315338,-5.873173782,-4.98378363,1.276437821,7.807788614E0,1
111.9807864,1.969605356,-12.49217395,-12.86821775,18.04230538,1
100.53783,1.777725759,-4.516927314,13.84659024,14.67279805,1
102.9569117,-9.737041951,-4.904619054,-37.73418526,39.27765283,1
64.17573746,0.1987550461,0.6953444535,-0.5596180066,0.914428669,1
104.271849,22.17213655,-15.37858647,41.0095686,49.09062312,1
216.934838,-11.38364478,5.453568816,-9.328149669,15.69532279,1
60.36413717,0.2141454294,-1.153338729,1.116870084,1.619705922E0,1
3.025436,1.474330111,1.274193075,-0.6846004871,2.065404342E0,1
102.828344,-0.2515640098,9.307763937,-2.886410471,9.748288022,1
8.599759208,-0.9276107696,-2.160501745,-4.076387562,4.705864966,1
83.69247608,0.2891259567,-1.500843433,0.5858325362,1.636864255,1
175.0539684,-1.253352722,-2.129277613,3.77582372,4.512378637,1
299.6065111,3.021108393,1.371179672,-4.576840809,5.652848964,1
272.6849063,-2.925036301,-2.591795587,-16.33268367,16.79374281,1
30.45205767,-0.8210455567,9.625392877,1.308389493,9.748547938,1
170.1390165,1.51736708,-17.02782405,-14.41577342,22.36210451,1
23.95406567,-0.01878125668,-0.05993337572,-0.9621072954,9.641551706E-1,1
49.67657108,2.418522122,-3.806098556,-12.31569797,13.11533652,1
63.76026821,-3.217649976,-0.6171081233,-0.3702016948,3.297141656E0,1
10.32478346,-4.58261318,5.99734116,-13.06716575,15.09036995,1
50.02426287,-3.011297935,-3.49443553,10.6868087,1.163988295E1,1
164.758823,-0.679243195,-3.074036804,-11.93269599,12.34100106,1
44.69779958,0.04332794107,-4.589181358,-7.256650148,8.586118693,1
58.29905729,-0.2283296782,2.130744387,3.664095708,4.244738325,1
14.74315442,-8.601365322,-4.259283205,-7.342697189,1.208470855E1,1
0.8527325417,7.738663616,8.318909138,5.735614525,1.272746785E1,1
23.86088638,0.6085932617,7.111115289,1.732971463,7.344490214E0,1
25.60553646,0.585099003,2.990133938,-0.4419126054,3.078721903E0,1
1.062993917,-3.125970604,-2.39142057,0.09563120286,3.936969633E0,1
248.5539098,-4.541016088,0.9778444916,19.47884938,20.02504882,1
99.21778362,1.885824258,4.152006678,-4.906229085,6.698251743,1
76.65813592,4.095962285,-0.8284438194,7.962504972,8.992480838,1
36.05323967,0.662840074,-1.576119318,-2.920276083,3.384009673,1
102.12629,0.6082514188,7.18708173,-4.696943788,8.607287292,1
154.2526577,0.1586047013,1.164835525,0.4535055144,1.260025596,1
15.30382342,-0.4016516751,-0.2281384742,0.738820256,8.713361017E-1,1
95.04721604,1.729757248,0.482536063,-3.271037686,3.731566525,1
47.55858758,-4.517556474,6.732371836,-5.310225493,9.69183377,1
46.246737,-1.421626963,-0.4786216445,16.88372761,16.95023185,1
186.008599,-4.052837316,-7.303222051,-0.762298581,8.387111646,1
49.82714617,-3.428567523,0.5454686219,-1.230214997,3.683210585,1
85.41102792,0.214483033,-2.833042057,5.802516612,6.460752998,1
24.22438367,0.7597258061,-0.2359731585,-0.8357045263,1.153806174E0,1
28.98704788,-2.108581247,3.008355616,1.553349529,3.988635499E0,1
11.69613317,-2.457691158,-6.905264062,-0.08165285826,7.330046711E0,1
51.68394813,0.3049594858,1.769321848,2.883319341,3.396620455E0,1
282.6625539,1.250715043,-1.966785537,-0.2496100348,2.344107215,1
27.70164658,1.275995041,-6.506520208,-0.2387500012,6.634754714,1
115.534124,1.61339678,-10.45694179,-13.64473032,17.26642251,1
40.30931817,-4.015971206,12.78808517,0.5928982385,13.41695477,1
157.8231742,9.512304218,-10.30456218,0.7024961829,14.04141852,1
149.3582486,3.269084423,10.53179199,-0.1903946972,11.02913441,1
292.780742,-1.65591627,-6.598366517,-12.78589129,14.48307686,1
2.114709417,-5.117455657,-7.764350435,-17.11098198,19.47457816,1
0.7395232917,15.33154679,-2.84847052,34.35609909,37.72945343,1
29.48012971,2.361241628,8.247992352,-1.243782291,8.669015761E0,1
63.80817088,-0.4951613711,0.9389885741,-0.01865086377,1.061711910E0,1
128.396555,2.688667286,-7.186660731,3.923879313,8.618227956,1
30.83172758,0.2150866118,0.2541322714,-0.2491160182,4.158175711E-1,1
15.75373012,-1.07056496,0.269099974,0.4409466819,1.188679143E0,1
90.71093417,0.3460212654,-1.260466737,5.935257763,6.077482359,1
48.04199325,-1.05390478,-1.372588266,-2.349558599,2.918071186E0,1
75.13239967,0.6307050924,-3.830362455,-9.149784449,9.939216312,1
82.60046829,4.539415998,-11.90109296,-8.301331823,15.20376339,1
39.58658792,22.33669358,-67.87388054,7.108702143,71.8075566,1
159.2481437,0.4716006003,-11.00523871,-9.842091858,14.77174527,1
122.5805704,-1.515694776,-10.40021795,-13.7291571,17.29021743,1
88.03086858,-2.211957973,2.779114649,-4.124782627,5.443350809,1
89.76739017,5.997377998,2.808622038,13.21437291,14.78095234,1
109.848904,2.932809005,-4.677215575,-12.39870972,13.57224067,1
91.66451446,8.419414589,2.83470559,2.497386151,9.228165332,1
152.553023,0.5133288163,-10.7717664,-11.34097647,15.64967109,1
64.43891488,0.1770455039,2.315087509,-2.460880814,3.383328193E0,1
96.13128667,-0.8875620201,0.9772306801,-2.207230353,2.571888795,1
94.57421337,-0.8388943286,-0.5696679085,-3.770195775,3.904182552,1
62.58519554,-0.8179253362,3.142515886,1.336680515,3.511569841,1
66.93155304,-3.994108467,-2.80621971,-8.510108412,9.810693996,1
2.616603833,-21.25036277,-14.94611471,-4.361767353,26.34367623,1
59.3649095,1.738354994,-0.8282452333,-1.771770662,2.616684836E0,1
220.4380182,2.767747662,2.605880068,-7.192272888,8.135098484,1
218.5709939,-5.694295176,7.487004132,-1.944486887,9.60527239,1
36.63858471,-0.6654369687,0.06670971394,-0.9411701703,1.154581238E0,1
51.18559267,0.2479666749,1.70652743,4.059496125,4.410581836E0,1
17.96705367,0.7249074642,0.815851475,0.2211463737,1.113557443,1
31.64692604,0.01099583521,0.898577005,0.2094425869,0.9227284213,1
132.51869,-1.150336476,6.5243969,-0.8801300628,6.683237078,1
278.4867973,8.517582323,-18.94977577,-19.33203632,28.37905634,1
47.57058567,0.7825876153,0.1986265536,12.13555929,12.16238854,1
248.9052338,1.162460532,-7.257450047,-18.81177212,20.19664987,1
44.295229,-3.914278185,10.21942321,-4.412068026,1.179934442E1,1
26.34651454,5.827093045,-12.01869216,-3.33575116,13.76703346,1
179.2130815,-1.304925748,-7.378596169,-10.68279751,13.04870397,1
23.13000538,-0.2278317878,1.383683943,1.553084797,2.092501126E0,1
222.4254967,-0.958897174,-13.62808447,-17.94332378,22.5523178,1
269.6032815,-1.428878534,-1.918020197,-11.19746709,11.45005522,1
158.8265617,-0.491642736,-8.193132606,-8.255582623,11.64146807,1
188.2529378,-1.439177674,-12.0720328,3.84134411,12.74994638,1
10.59680646,-2.884809211,-1.812871179,-10.52347725,11.06129285,1
30.44201967,-1.202120588,7.049305542,0.4548594372,7.165521589,1
48.00183967,-3.217242425,-1.876853313,-4.82928265,6.098786609,1
253.723396,-10.69793127,-7.090645941,-10.56059889,16.62074734,1
133.3108352,-0.9293351135,-8.280828561,-3.38121677,8.992686599,1
43.62679633,-0.4605059472,0.8282113194,-0.3075272906,9.962794545E-1,1
105.34588,6.065584599,-26.44766274,-13.33287726,30.23302494,1
58.41382867,1.530493787,3.244729016,4.408960816,5.684154563E0,1
5.250010917,0.002124731988,-1.669172785,-4.47613129,4.777226562,1
69.74190033,4.077732421,10.16510608,2.758570457,11.29455596,1
55.23812467,0.8612146126,4.970296442,-3.035566218,5.887291363E0,1
152.5175499,8.188992192,-10.41470384,-5.798812401,14.46208403,1
60.15605054,-8.908290349,7.176291863,5.458939483,12.67504722,1
139.0479057,-0.3589985758,3.571337233,-1.480873438,3.882823167,1
37.72957283,0.04618510991,-5.243961922,0.4947270691,5.267449532,1
153.4463743,1.667162658,-8.344847971,-5.802579178,10.29979826,1
278.8983503,3.575988109,-5.022189896,51.33554094,51.70442772,1
5.8524595,1.523840678,-2.63152274,-4.634955116,5.543447598E0,1
238.6465755,4.343974276,-5.740957711,-23.81410722,24.87851303,1
28.53650887,-5.647679418,4.547809968,1.102367966,7.334444318E0,1
42.46573817,-0.8014630853,-1.225517929,0.2123603475,1.479639884,1
232.6238902,1.286469597,0.5713523452,1.754888581,2.249684746,1
254.7271804,18.02748626,-11.73861637,5.464079186,22.19552965,1
22.18197812,0.9684728667,-0.6672257781,-0.6471616423,1.342366613E0,1
32.92420121,5.421564081,8.850443845,-0.1169805658,1.037966270E1,1
74.81119167,-7.746332824,-1.400049422,-12.61498419,14.86955402,1
22.48181333,0.3726848611,0.03162758946,0.4351619949,5.738120528E-1,1
159.458934,4.691853787,-10.58767734,-12.37278784,16.94692546,1
47.12093829,-5.779421865,-2.634671465,-5.596053182,8.465165210E0,1
7.404711167,-5.084183246,-2.226533766,-8.496087958,10.1483931,1
166.2981466,-3.112002776,-2.658283399,0.5093649888,4.124376874,1
38.22805262,-0.0980704511,0.1395274293,0.7001386587,7.206107536E-1,1
82.19812458,-1.376488944,1.381628792,-2.091164292,2.859473383,1
127.0774452,-0.2522511308,1.141782877,16.14504184,16.18733069,1
286.4769498,-3.634957571,-2.583498388,-21.71714833,22.17029346,1
79.59919017,-4.00573507,-0.269625054,-5.130448755,6.514607858,1
29.0300175,-0.5031331725,-0.6402452633,-0.7601579154,1.113955584E0,1
45.93958287,0.5748397708,0.1521036208,0.918654297,1.094304341E0,1
34.86630642,0.467234192,-3.156833378,-1.902861144,3.715479148,1
12.07927408,-0.160268088,0.1544477695,-0.1699727118,2.800548094E-1,1
24.96525487,-0.9817878538,0.4617060882,1.764480354,2.071345172E0,1
157.7730262,14.53320071,-15.7357344,4.530663593,21.89415841,1
64.2003985,0.02278162926,-0.1193323159,0.6950047302,7.055428968E-1,1
207.8406367,-3.87906216,0.5586445914,-4.73880342,6.149428012,1
183.0173669,-1.591308922,-7.927429864,-3.419915982,8.779079317,1
166.0975539,1.201652226,-1.202483407,0.9129607169,1.92961957,1
266.0699538,2.018571987,0.9121098009,-9.26720531,9.528256473,1
71.16748867,13.97214633,-3.394342308,4.865812545,15.17954428,1
50.21828304,-0.05240753409,-2.573635597,-3.635994574,4.454975116,1
52.59758017,-4.335699297,1.641427454,-8.642567727,9.80747416,1
72.07088654,11.3436545,-14.14263711,17.72120559,25.35219536,1
32.17331488,-0.2510613137,0.08562779546,-0.3584635556,4.459372414E-1,1
26.877046,0.3801994103,0.08021502793,-0.3704246199,5.368430323E-1,1
225.7480025,-0.8882914603,-1.395989408,-2.53827573,3.029965648,1
112.7875181,3.742324437,10.30149005,1.72568744,11.09521007,1
180.7407512,-0.1992352487,0.2390406078,0.1910834992,0.3651684545,1
189.3862867,2.444326762,5.829872811,-1.029937409,6.404913846,1
48.21245554,1.626297345,-2.477381072,-6.307312002,6.968819464,1
59.64522687,-0.6286832714,-0.6837169728,-0.2583557153,9.640846593E-1,1
67.49537487,-2.372559791,-1.083797209,-9.83505415,10.17506494,1
45.6851025,-2.94532497,-2.259967853,-11.08566482,11.69078091,1
15.52995071,0.8298232506,-0.9697613007,-3.446720788,3.675449333,1
93.09990417,-0.9498677574,-0.6012700626,-0.5639750594,1.257713128,1
55.78960583,-3.654010431,-0.9998838168,-7.360638785,8.278318863,1
183.1177439,-3.007709498,3.847197758,16.12379189,16.84707428,1
141.7324303,-0.1985074165,-13.32674237,-10.42856291,16.92325003,1
271.3197561,6.944180791,-9.457187194,8.004386823,14.20317728,1
83.27124908,2.447734958,-15.24564885,-10.74415117,18.81111373,1
148.8567736,0.9936492231,-18.73478184,-1.474699947,18.81898321,1
181.1118472,1.561939089,-0.2437411845,0.7375840084,1.744446518,1
191.3586948,-1.843464689,-7.664412748,-25.13319463,26.34044527,1
58.03339667,0.02674428731,1.054092476,-0.718697648,1.276069165E0,1
126.3605602,-0.1702060157,0.0911806038,-1.57294311,1.58475046,1
260.9305704,-2.954499836,2.60345552,-0.8495928329,4.028505667,1
13.888811,-0.05180106819,3.775024406,-1.703296405,4.141824629E0,1
171.6747815,-14.41137982,-9.251508459,-4.020924382,17.59108041,1
124.4877282,-1.82889679,-14.19359092,-13.98491665,20.00951724,1
45.10618854,-0.4317588423,3.543294572,-1.615568874,3.918088170E0,1
64.66918688,-0.8616234791,0.4088589531,-0.2960235516,9.985943152E-1,1
117.0299629,4.328456058,8.413601287,5.247852659,10.81961996,1
189.4464647,-0.4861410177,0.4954147017,-1.700342245,1.836554537,1
50.69506513,1.636699396,-3.819791273,1.57655552,4.444672946E0,1
111.8703724,-1.534548831,-11.45269805,-21.28199854,24.21657686,1
188.3532338,-2.590998904,-3.509316401,-1.675944738,4.673046939,1
3.750889292,-5.70448278,-18.14961471,-1.674782896,19.098548,1
7.897715917,-2.107765999,-2.179445846,-8.943908663,9.443842644,1
3.428643583,0.2996831411,1.591333773,0.07134977192,1.620877525E0,1
212.1769415,0.1147250023,-1.223034324,-11.95687656,12.01981164,1
29.82053221,-1.986835054,3.694611742,-3.445298746,5.428420848E0,1
185.203932,4.097018293,-2.888062602,-0.1779798158,5.0157892,1
125.197134,-0.6465621565,0.4332628924,0.3139802778,0.8392514349,1
58.94467471,2.704277013,0.735596686,5.643704481,6.301239316E0,1
116.9497277,4.251043308,-8.084852112,-14.91477831,17.4896202,1
154.9948437,-1.481968767,-15.87569687,10.92101775,19.32621564,1
61.85243642,-2.995792288,-1.228836516,19.20049619,19.4716169,1
197.3712842,-0.2343142669,-2.277222402,6.904243138,7.273872308,1
45.90947133,1.570017456,9.241246011,1.736296774,9.533116444E0,1
201.2056957,-9.775156442,-13.98978855,-18.29324806,25.0182092,1
280.7352813,-13.04391021,15.90543463,11.52162503,23.5769864,1
175.8103061,-4.646218607,6.868659323,7.983504077,11.5109585,1
40.10026913,-1.04653188,2.08335592,1.987403111,3.063555450E0,1
268.4790404,-12.3978034,-4.684993541,-17.57234484,22.01004309,1
65.60990021,-0.2462371416,-0.1904765582,-3.246175325,3.261068581,1
48.16210658,-0.4513861911,0.7456486344,0.4573142445,9.843158527E-1,1
176.4025288,-5.305567601,6.397723989,7.645457829,11.29304854,1
177.3607755,2.944327143,8.579332429,1.436601244,9.183563055,1
61.58774313,-0.2691807022,2.086668368,-0.344308689,2.131945497E0,1
13.157919,4.12616754,11.29372863,1.76264082,1.215238527E1,1
24.79505487,-8.764590932,-6.44481571,-6.759107645,1.280778044E1,1
26.75735729,3.756768229,0.6660651058,0.3519380629,3.831554600E0,1
241.0255388,9.122776744,0.1299308328,-12.66404935,15.60833378,1
187.9721082,0.8903666371,0.1528690213,0.8972751224,1.273273078,1
130.9419467,-0.3110116464,-13.12305461,-15.57668897,20.37018728,1
81.71672308,-0.9279630643,-3.780876884,-6.692941722,7.742842782,1
48.23221125,1.855840759,0.5676054494,8.47652259,8.695847060E0,1
36.40456767,24.85201606,-56.23859967,6.843764802,61.86469035,1
40.54317725,1.111059413,1.531987458,-0.02371511897,1.892617499E0,1
93.08988033,-1.312646704,6.850486177,1.299485499,7.095129653,1
54.09891717,-1.415920812,-0.9748989567,-0.7662624085,1.882131186E0,1
70.995542,-1.356472901,-12.71867638,-5.234732677,13.82053449,1
99.99579658,-0.9114869262,-3.774174805,0.6192791945,3.931756681,1
268.9407824,-4.06222005,-4.144728356,3.602543238,6.830719045,1
250.521325,0.4648197305,-8.108607595,-14.61063422,16.7163455,1
25.22252638,-4.625988411,11.54804977,-1.454638735,1.252490304E1,1
110.1137787,3.273902529,-4.145800151,58.62026416,58.85780719,1
3.769065583,3.013075196,10.07744229,-0.2992101745,1.052249932E1,1
230.9275024,-40.60944597,-20.06673897,-7.639100736,45.93644496,1
27.51092458,-2.288905723,11.56941783,1.673528084,11.91180988,1
268.14779,-11.70791732,-3.815873931,-20.99106916,24.33641729,1
286.165775,11.6145291,-9.883935703,-13.89537005,20.63179052,1
207.0777689,-0.3947031364,-2.509420305,18.407229,18.58168615,1
269.0612364,-3.039104369,-1.877869852,-13.6736682,14.13264846,1
54.71134704,-0.3547179754,-1.449476813,-2.904341835,3.265273246,1
62.45470454,1.267379315,-0.7921831155,-10.69908083,10.80296881,1
96.87092383,0.02331533387,1.440894855,3.49434636,3.779838366,1
6.904824292,-0.2405649404,0.3670493147,-0.5667273438,0.7167820953,1
40.72066113,-0.6910821256,-0.6443886003,1.055105506,1.416361113,1
37.32805583,13.8977066,-34.58064855,-9.400260456,38.436082,1
68.67881225,1.192792524,6.825487576,0.1253382835,6.930060919,1
38.75344079,1.477113093,-8.135963793,-2.476316879,8.631796755,1
37.43847383,-0.9053688383,5.707408141,-0.3230516481,5.787794294,1
116.5981178,-1.572098919,-10.54957922,-9.36247224,14.19228675,1
43.41418713,-1.492991938,2.530812929,-0.8197574151,3.050580474E0,1
57.1023375,1.006817445,3.504629273,0.5652450746,3.689933564E0,1
55.10005779,0.9697710217,-0.7417403555,0.02556519628,1.221183102E0,1
11.32836071,-4.817830294,-20.60315552,-1.542660527,2.121511979E1,1
15.23310113,1.311935391,-0.8996806669,-6.827970303,7.010832920E0,1
131.9470072,0.03497672841,0.2157511479,-0.08876479011,0.2359048904,1
205.1906743,-2.286436737,-1.331709797,-15.87792933,16.0968905,1
161.1830712,3.864676547,-0.7079311699,5.758693485,6.971330003,1
49.90744208,-1.535603376,2.481025349,6.68189984,7.29118303,1
175.1843521,-0.1167037001,1.456734377,-4.185852701,4.433628044,1
79.96054817,1.435579589,0.1174782369,7.090341886,7.235166754,1
52.356929,-0.8543983671,-0.4108171856,-0.5996635401,1.121768109E0,1
115.1326175,-4.772165294,-16.11062747,-26.50549404,31.3825922,1
62.30858046,-3.518458816,-0.1773150605,-1.570100487,3.856968836E0,1
16.05147033,-0.6596239592,-0.5332932571,-2.447430464,2.590255073,1
63.83991846,8.7220998,0.2856592888,-6.205386263,10.70810183,1
176.8843378,0.1929122159,4.329712332,29.86787225,30.18067953,1
279.1091453,-5.876291517,-9.317916457,-20.76037311,23.50207354,1
33.38198221,-0.04231359534,-1.164631749,0.848861931,1.441778114,1
59.66524887,-0.4635514694,-0.6932493961,-0.697590369,1.087247448E0,1
41.47445212,0.04693165317,-0.4069621164,-0.4898604316,6.385796635E-1,1
158.3949417,-1.105483362,-10.55347815,-13.02883258,16.80322805,1
105.064891,1.162591656,0.2728638268,-1.047877178,1.588748125,1
62.099712,0.5310979199,-3.070553033,-1.451146193,3.437467993,1
192.7662772,-1.091271997,0.6163614339,1.844864658,2.230314237,1
10.44623646,-1.740285452,1.570535227,-9.703961329,9.98308769,1
86.55080487,0.9120332024,-0.9409245872,1.043318689,1.67500971,1
64.44218546,0.6241364765,2.153476023,-9.987600989,10.23617013,1
42.37712492,-2.931488703,-11.19689757,1.10687383,11.62709383,1
111.4688654,3.177743606,-8.123418007,-12.56751767,15.29805461,1
142.6886192,-3.505577692,-8.876973247,-13.73643806,16.72660932,1
51.98657333,-1.982337669,-7.992999955,1.633543946,8.395604609E0,1
52.51496325,-2.587486482,0.03448585466,2.498545654,3.597082978,1
44.11749262,3.434405675,2.508789391,-1.094223379,4.391638800E0,1
232.9752132,4.46455088,-0.725750121,1.05526572,4.644622001,1
2.787848583,2.450042415,2.318557831,0.2494995955,3.382405697E0,1
1.900265667,-1.289783506,0.5535944974,-1.852866281,2.324461618,1
5.199865917,0.234267416,-0.9768612823,-2.855057409,3.026630469,1
150.8466223,-1.006728275,-13.9005577,-0.6533813256,13.9522727,1
212.3776969,4.70970212,-4.006148468,-16.78565343,17.88822743,1
7.807452917,-4.717406411,-3.782292495,-5.543327084,8.202934532,1
58.8743515,0.01127635539,2.515332133,3.256337786,4.114700313E0,1
25.09540787,-1.908815364,-0.4979079545,0.9013213956,2.168840400E0,1
4.737561167,-0.8793268016,2.413844642,0.4423335318,2.606821922E0,1
214.3350584,3.164650813,-0.1637296396,30.03084585,30.19757481,1
145.205459,-0.1353377531,2.089526195,-1.857732334,2.799215149,1
225.5472465,-3.517516537,-5.280654954,-7.049653451,9.48450595,1
55.50844267,-1.126850842,5.148355268,0.3596587265,5.282490813E0,1
237.4821883,-2.671779943,-0.5049699292,-8.990445483,9.392630765,1
82.65946858,-1.378792308,-17.99597327,-5.852301561,18.97381237,1
8.509496917,-0.4386523441,-1.693008083,-6.642946858,6.869311116,1
98.35526175,5.008402162,-25.53285416,9.786540971,27.79904886,1
126.8164662,0.3451064685,-6.645990334,-8.081801035,10.46918306,1
10.62750475,0.3701428572,2.031984038,0.1526089664,2.071051511E0,1
137.0720916,-1.081305272,-2.968721434,2.127177293,3.808859577,1
12.27019638,4.217841356,6.526705965,8.130535823,1.124694133E1,1
139.3588207,-0.3232279051,-4.613391169,1.664816317,4.915228146,1
15.79652371,1.883121821,1.032176966,11.52690624,11.72523366,1
182.9673264,4.067314437,-60.52740137,-2.317378155,60.70815106,1
29.30772571,-2.84969522,4.728973081,2.135659264,5.919880889,1
62.18368354,2.810260136,0.4028708196,-4.058286336,4.952732065,1
300.4597333,3.681648757,0.6203860724,2.048633984,4.258675575,1
57.2004285,0.6404595637,0.2044888258,0.5093895471,8.434938312E-1,1
19.42815596,4.063682147,7.857272632,0.9835636532,8.900429386E0,1
58.39182613,-0.90098942,-0.8046803695,0.8524667394,1.478510052E0,1
21.00627817,8.136666629,-11.7070952,13.47222109,19.61535529,1
6.804532292,0.04800889302,-0.08992111355,-0.2208844185,0.2432706041,1
102.156378,-2.201250991,5.901096575,-7.19516843,9.562368715,1
255.5000942,4.146243955,-13.68767462,-6.587804106,15.74620393,1
16.17796971,0.5833522935,-3.0338103,-3.038605601,4.33329307,1
143.0875142,-8.550859412,12.20951955,17.86411155,23.26619964,1
34.02385267,0.5305993717,-1.721964956,-3.225383211,3.694563013,1
125.688582,0.04698347412,-0.1549278259,0.2747127163,0.3188685538,1
171.5536421,5.217409716,10.13212545,0.6994568002,11.41799326,1
46.09976687,-1.098073551,0.2833122164,0.3334304559,1.182035196E0,1
85.80864246,0.4364799573,-2.144630647,0.7490903056,2.31324267,1
47.09684667,-3.821643964,4.093923654,-4.831795784,7.396717107,1
290.3515735,3.825767713,-4.066166044,-12.62569746,13.80501508,1
55.95021083,-2.99361537,-0.5359066701,-7.257600905,7.869034238,1
16.23199633,-0.5312120503,-0.258760635,-4.273240508,4.313899367,1
54.74965879,4.19485946,2.772897012,4.320062672,6.629384981E0,1
205.8531644,0.6377667017,-0.4169905297,-4.035212638,4.106527548,1
61.10964054,-3.062749924,0.4471792656,7.426298339,8.045515112,1
64.81150246,-0.5466376264,0.4909667248,0.6322611827,9.693375174E-1,1
15.99402121,-0.4432538836,0.2398188722,-0.1784364103,5.346275800E-1,1
150.9670733,6.610823425,19.67303658,3.475842846,21.04311855,1
179.6074067,-1.565522994,6.452296053,-11.30426765,13.10989908,1
40.51334412,5.466509289,5.285936744,9.152874702,1.189953639E1,1
43.40848125,1.494726222,-1.504968644,-0.1859899896,2.129255592,1
48.17214325,-2.186798866,-0.6563756847,-0.9823351532,2.485538307E0,1
302.4271624,-4.722815378,-5.684746673,-13.23374123,15.15761316,1
64.59910388,-0.2639058924,0.7087480259,1.895156268,2.040487041E0,1
132.8089517,-2.990583004,-9.57653939,-6.741856019,12.08744456,1
136.2719448,-2.180882215,-11.31756071,-11.02115951,15.94708076,1
282.6023269,2.025067951,-1.486770939,0.1955893636,2.519849843,1
25.39528646,1.294580854,-0.7408223426,-1.377804275,2.030542280E0,1
52.24460754,0.4240697537,11.51981941,1.27587415,1.159801402E1,1
78.21653646,-1.276482845,-1.526323699,-12.19402326,12.35529343,1
25.39290142,-1.104733018,20.41874837,4.779780707,20.99981009,1
292.1784688,1.128450787,0.8660417815,-2.035470732,2.483258071,1
170.1495009,-1.504841174,-0.5679646146,1.621151065,2.283694712,1
192.5757132,2.050598941,5.779002619,-0.8027404095,6.184352792,1
53.41814062,0.1731088659,0.1392786303,-3.584930255,3.591808758E0,1
195.9459288,-1.494003506,-3.852084276,-6.640757076,7.821141495,1
240.9151218,47.15233995,-3.776182154,80.01514203,92.95173839,1
207.2283349,-0.4119285952,-2.293926727,-12.54355695,12.75823678,1
89.40603317,-1.940647898,-1.8415794,10.51008245,10.84524606,1
56.39152979,1.031827741,0.2500360045,-0.4318928897,1.146175361E0,1
9.627021292,-3.031495972,-1.766872157,-1.968803703,4.023430510E0,1
58.00336267,-0.3986280799,0.5469862667,-0.7110413039,9.816710538E-1,1
13.20131129,0.7239136568,0.1251181358,-1.401807972,1.582646872E0,1
263.8716615,0.6608480007,-0.7599173024,0.2898681146,1.047958926,1
15.90391221,0.6239784555,0.1005931592,0.06773889698,6.356545090E-1,1
60.96702212,0.730479349,-0.7783983046,-0.7473364332,1.303079332E0,1
54.05673717,3.604100644,3.489377396,1.427341594,5.215611191E0,1
10.66707346,-7.333776092,2.137173986,0.6791634536,7.668966515,1
47.28876742,-0.5036431228,-9.66943469,-1.77084344,9.843145336E0,1
92.33768371,-2.058182341,-2.086177787,-0.8734523964,3.057968508,1
53.106681,-0.3460107769,-0.4698313791,-0.359980908,0.6856028272,1
72.05863187,4.510821066,1.075856397,0.1889504349,4.641193375,1
93.58171321,5.423236384,0.05934836179,3.010485172,6.203066667,1
87.62393308,-11.27744882,-48.50902964,7.270292287,50.33054697,1
238.4558565,4.378643003,0.1205172542,2.960275716,5.28680161,1
32.56961521,-1.484478685,-1.000195766,-8.978308418,9.155003582,1
251.9968875,7.533015872,-15.18131077,-14.48522547,22.29440024,1
40.29309042,-1.465618929,-0.8874377668,-1.155291114,2.066466112E0,1
171.9949431,-3.752885678,-0.1441420519,3.34453017,5.028996908,1
7.173837333,-19.4714012,-11.1622154,-3.650101567,22.73881612,1
14.19249604,0.9717518391,-0.7854763591,-1.42716033,1.896855649E0,1
92.42794671,1.938324507,11.31215555,-2.264119084,11.69821355,1
21.49062733,-2.552797582,-9.067188435,-1.8676707,9.603065940E0,1
156.0680039,-3.819348347,8.057209985,3.037817981,9.419893451,1
31.94771596,-3.68046645,1.377764221,-0.1688920002,3.933521584,1
106.118781,31.31374601,-15.04706338,60.98692703,70.18810494,1
70.19321058,-0.6929514804,-1.00549422,1.474871855,1.914796953,1
103.901485,1.703882734,10.47501319,2.07852729,10.81431428,1
221.6425508,-0.2213478103,-3.827946093,-8.479884739,9.306482221,1
191.2181672,-2.355899027,-5.802116663,-2.396526359,6.705084383,1
178.5706695,-0.390323718,-7.357336863,-10.71947826,13.00730458,1
60.04977425,0.5801391754,-0.07133047611,1.812130483,1.904065752,1
76.16055646,-2.592500761,-0.09730994761,0.2714794984,2.608492005,1
100.7622999,-6.558674448,6.175843205,-1.664515185,9.161215018,1
225.9086065,-13.44741486,-8.310880911,-14.50853365,21.45696289,1
275.6962688,-3.746751949,-7.391150726,-13.03941954,15.4497159,1
131.9570372,0.06271767363,0.1933580661,-0.04186661225,0.2075419512,1
58.74072029,-2.256248732,0.3548384281,2.671397535,3.514674016,1
289.2373685,3.528211971,-1.320948873,-1.67354504,4.122370513,1
39.74245542,1.855549568,0.08865986913,1.716989853,2.529620313E0,1
20.23651354,2.455280936,-0.1935843533,1.872452699,3.093858188E0,1
153.2497049,0.2189665318,-0.05097251773,0.2630206239,0.3460121215,1
58.38379467,0.9428649858,2.779093891,4.768607263,5.599283210E0,1
93.01967533,-1.089067012,-1.42480858,-0.6798893854,1.917914498,1
173.9533342,-2.358308957,-9.822082686,-1.14168172,10.16554802,1
233.1257802,-2.354205527,-2.891452818,-16.6997321,17.11092737,1
172.7271029,-0.4670387489,0.4001536185,-1.000636646,1.174530463,1
48.31230325,2.225114355,2.698774783,6.262204826,7.172846611E0,1
267.374875,-3.54198041,-2.262312002,-14.9297542,15.51003679,1
145.5166273,0.3664866664,0.08060269833,-0.9147179514,0.9886952019,1
39.28169438,0.9763641228,4.645663707,-1.594576639,5.007809185E0,1
278.0752443,-5.72832831,0.07317505337,2.019107884,6.074199244,1
152.322157,12.38661183,-1.027911568,15.57278654,19.92476939,1
10.67711146,-2.43073374,0.1760896303,8.255422994,8.607640959,1
164.708635,0.5536755179,-3.051023918,-9.274927143,9.779548918,1
236.9802985,2.757939542,-2.885024974,11.52717521,12.19858057,1
36.62885625,-0.2735020503,0.1334124112,-1.646636739,1.674519272E0,1
38.87144963,0.07643246412,0.6940235674,2.184604552,2.293470663E0,1
51.716197,2.574470872,3.14537459,4.259758583,5.887854004E0,1
61.94784037,0.1215180051,0.1076182964,0.4523587292,4.806003987E-1,1
50.01425087,-1.212697908,-2.84928036,10.00235351,1.047072637E1,1
157.5323172,-2.928601933,-2.830865139,-2.273821954,4.66484437,1
180.2068127,-3.615955582,-2.333805031,4.831753684,6.470519635,1
98.47561375,-2.119133863,-2.481779348,-1.866877086,3.759679124,1
233.2562712,5.109637345,-4.279355234,20.9684685,22.00222594,1
156.7788787,13.35538787,-4.60788777,39.27974236,41.74322909,1
148.2349436,-3.2052875,-10.91472615,1.470806286,11.47032632,1
84.14379058,-2.581264167,2.638878245,1.395661379,3.946450782,1
166.3683536,-5.880634244,0.5936163497,4.284829105,7.300273964,1
72.52258567,11.68762748,-8.609917459,41.7975768,44.24668057,1
26.84841554,9.017105863,-13.95998413,4.164605674,17.13281341,1
61.83586054,0.0457394059,0.6749324083,0.1323862249,6.893126733E-1,1
34.70815571,19.18850004,-25.3350335,0.3992759514,31.78398775,1
180.6585086,-10.59454665,8.239346074,26.38778257,29.60483595,1
148.9896554,-0.1162371106,0.7895702872,-0.4786367011,0.9306048549,1
13.75477608,-0.2149522355,0.4111197791,-5.657779899,5.676768211,1
36.10795871,2.561779783,7.407999478,0.3485736481,7.846188598E0,1
128.456732,5.065553432,-6.544018986,-0.3256507355,8.281911885,1
213.3814728,-8.712973466,4.848342234,-5.654606615,11.4628489,1
146.4501282,2.900716562,-7.222011243,-1.870734787,8.004451986,1
118.8967455,4.199325563,-7.853590055,-7.137264038,11.41287649,1
145.3961753,3.621988739,-5.163174452,-1.200392443,6.420133555,1
44.86844258,5.622939264,-11.7249526,38.58022357,40.7127205,1
130.0614575,4.535876386,-9.24995427,0.3873939706,10.30950545,1
158.1640755,16.47170707,0.1348025867,45.36517825,48.26318165,1
52.02542429,3.539346532,-1.152584438,-5.434034438,6.58666494,1
73.60311996,-6.282593483,-12.099075,-0.754988392,13.65388605,1
299.4559431,14.13810201,-8.090005263,-1.496672029,16.35769363,1
73.41594442,9.89171133,-6.042315019,20.62700982,23.66070705,1
150.2443625,-4.461445423,-15.02646247,3.483686886,16.05724584,1
159.9594674,-1.64019223,2.532423837,-3.162633231,4.371001029,1
9.502659458,2.348066682,-3.757255302,1.951868997,4.841505668,1
86.73133087,4.481159603,-0.2965009768,-10.58654532,11.49972374,1
253.372072,-0.05477905512,-13.81543628,-12.04553555,18.32932642,1
127.8001576,-2.235968687,-6.263421047,3.121985727,7.346890095,1
117.7926005,-2.478333876,-3.592574028,-11.93437063,12.70739664,1
51.88489429,10.60197028,3.692319049,27.98067171,30.14884712,1
96.15136267,-0.5368277893,0.5216961819,-2.122948587,2.251057903,1
194.0086501,-3.228338978,-5.902788759,-4.302385955,7.985963474,1
8.539584208,-1.064489703,-2.194529909,-7.287135192,7.684493422,1
187.5744807,-3.550139322,-3.167738728,1.868316963,5.111620695,1
273.1767623,2.084194996,0.1188184188,-0.9046665877,2.275172132,1
62.63896346,-0.283041271,0.2604612976,0.1478082744,4.120676336E-1,1
185.344347,8.491509588,-3.004470726,9.701491465,13.23825956,1
9.74642725,-0.1475764871,2.888333328,1.606206751,3.308194124E0,1
90.07106983,2.307176957,-3.735944248,-1.303471838,4.580325727,1
42.77664317,0.8060388239,-1.610571697,-2.942932289,3.450288428,1
196.5374265,-0.1489873472,-1.998789102,1.254454629,2.364531988,1
135.6295344,-13.86847403,18.30234048,23.40354146,32.78774149,1
64.22080696,3.621766252,0.5730867755,3.361673622,4.974582271E0,1
55.59077433,-1.384182125,-1.980446094,3.592697697,4.329619340E0,1
278.9184253,3.033507999,3.087025809,29.99253489,30.30320195,1
34.62653512,2.210834869,2.984403666,6.43790781,7.432436547E0,1
104.522791,-6.23660864,3.184568184,-25.97413417,26.90153169,1
183.7295761,1.760105174,-0.3407535088,-1.643984296,2.432440656,1
206.4453919,-1.739810512,-5.754795731,-15.85276759,16.95449365,1
20.93050025,0.1168343854,0.00424741745,-0.8862121904,8.938905753E-1,1
151.6596726,-2.640388873,-19.3941513,-8.34083912,21.27614521,1
177.7118115,2.425802783,6.1013029,-0.09605104208,6.566554806,1
2.476072833,-4.955962577,-13.24918256,-9.544728198,17.06470744,1
48.03965342,-1.609607199,-4.592100872,1.075556728,4.983477504E0,1
53.33034167,-2.6835767,-3.003853844,-3.116048464,5.092590682,1
125.4111937,7.577523708,-3.130871741,14.33595541,16.51486727,1
129.9080669,-0.589324201,-10.4884384,-14.81063238,18.15790392,1
20.006235,1.588109472,3.453837435,1.349905747,4.034021597E0,1
167.0373744,-0.7234655408,-2.185572997,-0.7790935385,2.43045643,1
30.41876117,0.5481532247,2.944471276,-0.09429110326,2.996543654E0,1
52.58754217,-5.811849938,-0.1411219651,-10.37218172,11.89031828,1
183.1378189,-5.886312475,7.701489358,6.791838019,11.83599073,1
16.35234633,-0.4188146418,1.368734074,-4.176164449,4.414656066,1
58.502372,-2.07806609,-1.589586333,22.84586678,22.9951902,1
22.41172933,-0.5790860188,0.2194933659,-0.4518523604,7.666084466E-1,1
62.43462854,1.592934887,-0.2407959419,-9.95475601,10.08427446,1
278.9485393,6.325963451,11.2421866,7.199082556,14.77265591,1
6.0026415,1.026942465,-1.922929373,-7.353004661,7.669351064E0,1
111.0825202,3.952083358,9.426539598,0.8067324498,10.2532643,1
86.65570329,0.1604020989,-0.8222360498,-11.50474061,11.5352008,1
208.1518067,-0.4308051614,-4.549261539,-17.17893715,17.77631164,1
182.8469704,1.286597505,9.867900299,0.5197695609,9.964986194,1
186.3799943,-0.74196445,-9.997393906,-3.510461286,10.6217576,1
222.5158367,2.560447495,-10.72995413,-13.1861484,17.19192592,1
273.6987314,11.59580398,-6.300387145,14.27211551,19.43838546,1
234.6013379,0.2204964557,-1.287555863,3.337407092,3.583951016,1
49.63642008,1.83915763,-2.845788695,-10.71752646,11.2403909,1
90.47002917,0.539569366,-0.4613154942,-9.036041486,9.063883981,1
190.5998735,-0.7224194008,-5.311315999,4.579479657,7.050078111,1
138.359777,-5.895593176,-0.8799056759,24.51494747,25.22924696,1
284.7303588,4.972223684,-5.389030758,21.1597777,22.39421473,1
116.7687588,6.266739342,2.72962557,9.305768867,11.5464372,1
153.0491149,0.6905807269,3.862160198,0.514749105,3.957038006,1
102.306818,2.003885535,9.368574395,5.061987215,10.8355645,1
257.5678917,32.34123512,7.259160358,15.07531128,36.41312824,1
237.5323773,-0.9147846097,-0.3865917327,-8.82833026,8.884013689,1
100.5817719,-1.044102289,-2.979101996,5.579103273,6.410272352,1
26.68780654,-3.316131121,12.08645905,3.981719971,13.15041109,1
79.95158546,-2.738936968,6.84106105,6.969301014,10.14263519,1
164.688559,0.5698054278,-3.074054638,-7.787473834,8.391617178,1
169.6179331,-2.229937284,0.5765863341,-1.329127082,2.659257583,1
220.3677532,0.6548218603,-0.2707785635,23.03444182,23.04533841,1
10.84775846,2.65869212,-1.90572014,-5.815978072,6.672781577,1
142.0166429,2.311033488,-1.857506046,2.775262796,4.061192938,1
155.2957299,-1.750178649,-5.088990242,-0.3461353592,5.392657663,1
56.64697538,-7.317139009,1.941550854,-4.287125891,8.699976518,1
9.797226292,1.93492552,-0.27737203,1.58863119,2.518853126E0,1
196.0760623,0.4958438873,0.7729220948,-0.5725149179,1.082147428,1
254.12491,3.577679708,-11.24166386,-11.47112731,16.45483394,1
33.59259567,0.0001293696463,0.2880227333,-2.246925931,2.265310851,1
17.806801,-2.802892059,-5.764005096,-4.201402786,7.663663877E0,1
60.53748654,0.604468855,-11.778471,-4.834200159,12.74626427,1
44.18745308,4.438177306,1.595768886,1.175621445,4.860656531E0,1
41.40437112,0.7743691345,0.01732179165,-1.978283209,2.124512193E0,1
201.3763368,5.469691343,2.553943929,29.86822309,30.47213322,1
20.46940433,-0.6240442367,-0.08951327026,0.2361304486,6.732023646E-1,1
276.2784648,1.987895739,-0.5921880211,5.289261471,5.681434945,1
91.73592675,3.859668407,0.1123986876,-1.356727109,4.09272307,1
8.579700208,-0.8487480564,-2.428064486,-4.406962822,5.102665159,1
264.1627595,0.5108066929,0.3588336843,-1.78857439,1.894382074,1
51.11087867,-3.70369276,6.232291641,12.75894264,14.67478847,1
174.3518964,0.7772062766,9.417598035,-1.192154301,9.524517533,1
18.84803579,-0.34238649,-0.2434353751,-0.6099797827,7.406514873E-1,1
12.42088921,-5.239690531,14.08882869,-9.025880195,17.53328161,1
147.38363,1.231450221,-26.97885655,-12.97639241,29.96267562,1
212.6186029,-3.776573333,-0.001657977998,-7.967014344,8.816792299,1
131.1426997,-13.74348395,16.40947281,42.78247245,47.83820751,1
26.10358704,-1.201387931,4.760264456,-1.9337093,5.276616558E0,1
180.1465867,-4.408581624,4.040359942,2.934224031,6.661063808,1
188.0061017,-2.087382459,-0.7294734818,-3.838639188,4.429948974,1
10.52654046,-2.88504924,-0.1305673023,-11.33913109,11.70113032,1
38.20135583,14.69582581,-36.45715804,8.507111129,40.21769024,1
16.22165042,0.9892813531,4.273161571,2.185200968,4.900376586E0,1
121.8277457,19.63895667,-4.501909033,15.20789689,25.24353248,1
31.42574096,-1.30227579,15.10641495,4.388382125,15.78472656,1
11.49588817,0.2826016335,-0.520270046,0.08043605268,5.975069561E-1,1
6.59335775,-0.3931536608,-0.3263757902,-0.2694122154,5.776451326E-1,1
38.030478,0.4598329327,0.5098356897,-4.956316334,5.003643708E0,1
160.3924378,3.478855624,-10.02029394,-11.48391517,15.63294709,1
62.44466654,1.350896558,-0.5739890009,-10.20167223,10.30672117,1
230.8973884,-39.85887398,-23.50156184,-19.14993766,50.07767323,1
186.9922933,-2.206492435,-9.651399538,-1.675985084,10.04126725,1
114.2191885,-7.182254854,-12.0288593,-24.29971848,28.04914542,1
142.2372912,6.143297018,10.48863603,1.0867157,12.20379183,1
142.8566482,3.881638735,-10.75747932,-12.008518,16.58297275,1
22.54038458,0.05488656166,-0.9031536207,2.184106954,2.364111289,1
17.81417517,-1.770067661,-1.376258125,-16.44427778,16.59643026,1
147.845363,-0.9782823019,-18.54893744,-17.62481775,25.60574774,1
30.00115275,-8.35003679,-10.79077921,-9.453812181,1.659935526E1,1
277.8744863,1.210096482,-0.08473309837,1.516698743,1.942134978,1
46.16984687,-0.6375305472,-0.589607791,2.571293203,2.713969653E0,1
37.54889083,-3.708042796,10.96786564,0.7885286057,11.60454374,1
146.6910322,-0.7677910899,-11.69052186,-5.628468976,12.99759468,1
9.69636525,-4.65024997,2.987200974,2.738483809,6.168264587E0,1
19.05508542,-0.3566477028,0.8760169852,-0.09076749802,9.501800255E-1,1
13.54416208,-0.2211647925,0.05802966848,-2.306708449,2.318013195,1
8.619311667,24.75908041,-4.241483696,60.30068377,65.32361526,1
35.84765271,-2.185828082,-6.28068846,0.586913394,6.676028705E0,1
27.83581917,2.5147249,-1.226779758,2.802800843,3.96036898,1
32.80028721,-6.937561158,4.170418391,7.565595973,11.07972864,1
18.28678483,0.06595176861,0.1573883343,0.1028408289,1.992409587E-1,1
209.4567123,-2.894998569,-3.676962506,-15.53699807,16.22650236,1
10.01675775,-0.9216750417,0.2092993301,-0.498801409,1.068687952E0,1
96.86089483,0.1803123432,1.279278983,4.322699182,4.511628916,1
208.9447885,2.370453039,-0.5470787989,-8.391836781,8.73734899,1
142.5181182,2.083328877,9.954642574,-2.728269308,10.5298918,1
80.15126517,-0.8405539877,-8.430131366,-19.41194437,21.18011403,1
36.73628438,0.2349346199,-0.08322517455,0.6235260272,6.714949083E-1,1
291.5360438,-1.414985842,-4.552471368,-11.95478911,12.87028217,1
132.478572,-0.834035731,7.834359732,-0.4209066293,7.889865044,1
34.22443667,0.1533403069,0.1371347487,-0.06246171176,0.2149898938,1
80.34198242,-0.2848479876,3.362034395,1.79558988,3.822114162,1
212.6487159,-6.810560219,-0.7612820426,-11.66345743,13.52773152,1
167.6597102,0.8766764049,-7.864280519,-3.462020613,8.637190303,1
34.23331025,1.752974641,3.401683195,-0.9613541009,3.945702771E0,1
186.7313133,-1.506309995,-4.709341639,26.04761496,26.51273493,1
19.40813196,2.496017318,9.630032642,2.474082073,1.025127862E1,1
185.183873,-3.530512558,2.731482353,0.2015811516,4.468349777,1
249.3669749,-6.826412605,4.363078592,-6.762205499,10.5529042,1
37.69454517,0.4077816036,-2.796941348,-9.985434011,10.37776754,1
188.0261767,-2.03833543,-2.629401662,-6.89233236,7.653287515,1
