Time (s),Linear Acceleration x (m/s^2),Linear Acceleration y (m/s^2),Linear Acceleration z (m/s^2),Absolute acceleration (m/s^2),label
262.6470439,1.538222344,-0.1857443335,-1.374476917,2.071187034,1
48.75279758,-1.899637282,-0.4987885451,0.008937030584,1.964049817E0,1
62.91928921,1.180827513,-0.9885583448,-0.1386795831,1.546231950E0,1
18.57450342,11.37508094,-18.55967293,2.459005612,2.190663448E1,1
256.9957338,-4.5497223,-13.42880318,-9.615152648,17.13137146,1
121.3526541,3.875079329,-24.20683429,3.293203019,24.73524312,1
11.18729558,1.041025849,-0.06123204231,2.659904248,2.857022014,1
290.7330128,-4.369079004,-4.213059211,-16.91203164,17.96818114,1
183.5694391,0.8056493993,-8.589567395,-10.0132422,13.21721447,1
54.39434992,-0.2969794983,1.846372071,9.24235055,9.429651655,1
48.47016142,-0.3260859511,-0.09352796853,0.4811498344,5.887144397E-1,1
1.966829125,-2.188103672,1.558482361,0.5316301627,2.738484176E0,1
26.84701,0.3721948645,0.07260253787,-0.2966210822,4.814397284E-1,1
273.7489204,2.432309272,-6.061579841,38.12339465,38.67883269,1
150.3045883,-4.241861426,-16.58715683,-0.1461710175,17.12158071,1
14.62301142,7.336676311,3.096767271,8.673152173,1.177456392E1,1
10.84849042,-9.833774779,-4.25973958,-5.377091328,1.199006334E1,1
177.6917515,1.923141042,5.663102619,-0.3386835945,5.990317965,1
31.24505796,-1.747018521,-15.4974323,-0.3575197419,15.59968916,1
132.1063155,-10.09960441,11.22887483,37.59063144,40.51105048,1
42.75856492,-3.345990804,6.771482107,1.213741636,7.6499538,1
108.9161705,2.388530291,9.070013809,1.776079037,9.545925005,1
19.795981,-9.074112707,-13.24373529,9.448067291,1.862799027E1,1
22.81117358,-1.015887354,0.5734411168,0.7395663607,1.381238659,1
34.60375125,-1.876095807,-4.349506912,2.882139373,5.544787932E0,1
55.52846567,-3.586724181,4.935724779,-0.4184010243,6.115638059E0,1
3.329296292,-7.13046548,-17.42457518,-7.805821227,20.38112369,1
27.04471804,2.546643096,2.505423734,0.4427376841,3.599799411E0,1
254.4160074,-5.345710491,7.933203405,2.242812415,9.825606568,1
64.3405585,0.6342778873,1.358668385,-0.4139635724,1.555523724E0,1
140.6383264,0.2726380877,-6.611081287,-6.139914404,9.026587185,1
4.019375583,-2.948384525,-9.144735378,2.833207533,1.001729611E1,1
234.8924339,1.873916842,-2.5808955,10.08150259,10.57399075,1
185.30596,-1.202298635,-8.13149769,-10.91340935,13.66269668,1
2.497488125,-1.787692338,5.098898349,-3.220918862,6.290383659E0,1
50.31233279,1.54005223,0.8327370644,-0.6826098025,1.879140237E0,1
81.91790417,3.774843727,-4.656644778,39.47964696,39.93214633,1
36.52112779,1.812870156,-0.7896062475,-4.365109622,4.792093305,1
151.5392206,14.17262397,2.012554325,4.142294453,14.90208873,1
175.2481959,-2.425792696,-6.233719531,2.366081076,7.095214518,1
261.7637123,0.6731583631,1.444633272,-0.4891090643,1.667133813,1
34.79610242,0.07872618064,0.8153285877,4.878709749,4.946995789,1
37.609991,-7.914006996,-5.281864743,0.4028135169,9.523227427E0,1
87.89472208,-4.172685356,7.98425369,-3.663804517,9.725382954,1
40.59323625,0.9414115872,-0.7893179798,-1.083227105,1.637882661E0,1
306.8438428,0.8568090279,-1.724893827,2.703796957,3.319623232,1
148.6383374,-0.1497827147,-3.769204087,-5.237538756,6.454544641,1
227.4745021,7.330807461,-5.188418636,11.50403193,14.59462835,1
166.6459054,-0.9128980055,-0.4448934428,-0.6224951631,1.191139443,1
138.0650133,4.506443549,10.50748863,0.4292938024,11.44113822,1
4.039400583,8.989421051,-13.89727391,0.0485469465,1.655132229E1,1
120.5202102,0.4326148016,-3.286555611,-5.321676096,6.269676213,1
219.6952233,10.53688843,9.786660254,30.22638376,33.47295941,1
35.16718342,-2.186477708,0.9618061638,-5.666846591,6.14970781,1
125.1301382,1.236736397,-2.702542729,-2.128941398,3.655905578,1
128.7537355,-2.721859006,-1.409982672,0.3825926757,3.089165703,1
61.69787113,-1.62253013,-2.466543843,0.7945255101,3.057403038E0,1
7.594569625,-2.432704105,-3.227676196,-2.699254839,4.860238634E0,1
144.5741681,1.774455557,2.608261639,1.118412725,3.347023801,1
54.16899717,-1.51346611,-1.097343161,-1.26019601,2.254514507E0,1
102.667875,-0.4287816594,4.119327174,5.108201269,6.576201813,1
50.94038304,-0.4919309306,-0.7128157876,2.117049916,2.28735715,1
144.372334,0.7402291426,-16.95314575,-11.68842972,20.60525369,1
187.2198862,-0.7976224878,0.1974107713,0.947685138,1.254304495,1
155.5865869,4.785783459,10.38015732,4.624497371,12.33034327,1
28.59908721,0.3921098962,0.2164843887,-0.4425101177,6.296275610E-1,1
191.2818894,-1.224325389,-2.676580507,2.937389714,4.158282602,1
165.8428913,-0.7405875769,-1.475519288,3.836467533,4.176614689,1
144.3836071,-1.645765796,-3.119293084,-0.8973949903,3.639210377,1
228.8396406,-9.156042139,8.632624537,-2.848192193,12.90222899,1
4.587375167,-1.963209964,1.857883192,-0.243295919,2.713874762E0,1
135.6194964,-14.77834756,18.16298262,26.32143539,35.22941179,1
181.7035939,0.1205296612,9.053589565,-0.2368800616,9.057489916,1
289.0165345,-3.562581028,-3.272638654,-15.82086752,16.54394139,1
24.40153712,-2.405013592,1.160163599,-1.964561548,3.315052342E0,1
25.85630075,1.076962398,-0.6356695247,-0.3284568143,1.292984003E0,1
63.98518446,0.06457401842,-0.138352139,0.09768504649,0.1812553076,1
30.62187612,1.055556327,-0.08619322121,0.780688659,1.315713955E0,1
63.32760688,0.09279743202,-0.1584110123,0.6034191336,6.307297861E-1,1
219.1331089,-10.56590231,1.345401491,2.895058796,11.03765203,1
34.32341725,5.300413865,-15.75158387,-2.990199426,1.688632802E1,1
184.693661,-0.6315849522,-6.435050275,-10.11818686,12.00776736,1
237.7331343,-2.483413352,-2.073434511,-7.312209222,7.99592873,1
306.3519859,1.136377565,-1.157408391,-1.268777969,2.059307089,1
50.93534633,1.683611607,3.075652975,-1.907261174,3.991470212E0,1
60.81466417,2.054357824,11.8048127,2.010452836,1.214972879E1,1
43.43302967,-0.1432639463,-0.09664219558,-0.06128700614,0.1833585815,1
38.15796962,1.752979611,-0.1035647142,-0.03014941335,1.756295008E0,1
99.03725562,-1.562112021,-0.4709552139,-1.28583649,2.077346446,1
205.8330894,-0.2292844554,-0.03523398763,1.128532501,1.152127772,1
188.1024932,15.29916491,-32.06633646,1.843469805,35.57685711,1
15.99728471,2.846053574,-2.556424026,-4.798575997,6.136909348,1
176.0512101,-2.084240019,-8.246058678,-7.221703679,11.15771232,1
119.9685902,0.2922040772,2.308217615,0.989543016,2.528328927,1
179.4840997,-8.510430009,8.465025795,13.73043647,18.23757019,1
151.9960153,0.009175158441,4.685428281,-5.23002216,7.021855464,1
172.7086629,-1.053189374,-7.594346148,-7.663961343,10.84064596,1
24.57174213,-0.1002562134,0.3710637206,1.0569772,1.124695690E0,1
276.3888825,-2.274989643,-1.581156402,-6.341233454,6.920034333,1
165.9934563,0.6445849936,-1.36476206,-2.739035202,3.12735977,1
226.1394755,0.1482836348,-0.193785059,-10.12284943,10.1257899,1
12.52411321,2.520838456,-0.3405357,-2.032845333,3.256232674,1
191.4724524,1.693363593,12.08514927,-2.022667669,12.36970079,1
235.6553073,-0.02103711247,-0.674345421,0.7522548187,1.010480885,1
143.4689452,-2.048788497,-13.07764162,-7.118814903,15.02996242,1
159.5281964,0.6616046304,0.7009232819,-0.4481890798,1.062961705,1
258.5114492,3.272290159,-4.021809943,-5.609343318,7.638558147,1
137.948233,-11.37932018,8.389168696,22.09798684,26.23333951,1
43.77697233,-0.4445829557,0.6016884309,-0.2115151325,7.774455760E-1,1
252.8601428,4.053220893,4.533935402,30.33127111,30.93495073,1
35.64168367,0.1888293976,0.7673447281,-1.531205685,1.723097595,1
36.20019279,-0.8033942744,0.7067368761,2.424691227,2.650291855,1
185.474732,-2.774251812,-2.636178001,-1.073670416,3.974754801,1
81.96745358,-4.330742904,1.429127333,3.881989861,5.988955194,1
182.8168814,1.0710217,10.02429344,0.2572763193,10.08462877,1
1.206804667,-0.7746797678,-0.876068733,1.527416105,1.923700893E0,1
111.9305984,0.9910951594,-11.10664112,-16.94213194,20.28239584,1
4.156828167,-0.6339339249,-2.778579921,-7.197628938,7.741333278,1
52.126666,0.5647305197,0.2349870256,-2.793195037,2.859384195E0,1
43.84458167,0.3784551859,-0.25785227,-0.6442713636,0.790443996,1
52.89607125,0.04416226566,-2.438593275,-4.736707778,5.327765764,1
37.35355208,-0.1334128498,-5.436662761,8.844234686,10.38246542,1
12.06986621,-6.186248326,-6.183666195,-10.02808243,13.30675893,1
36.92651037,-0.3005846722,2.093103229,-3.459833754,4.054859046E0,1
159.1979557,4.979513408,-4.898967428,-3.725608417,7.916791883,1
218.219671,-1.833571054,-13.96647337,-18.27700449,23.075382,1
238.2149493,-2.526334546,2.18187785,-10.06247459,10.60171458,1
297.6591593,-0.8874706574,-3.895216262,-13.69209745,14.26302375,1
27.627936,1.085721527,5.552508967,2.064628458,6.022610541E0,1
99.17766562,-0.3267231148,0.6939036995,2.374884059,2.495661162,1
63.169227,-0.9711941609,-0.3658333862,-1.63497856,1.936545134E0,1
155.162814,-0.8392279854,-7.767618443,-15.29322999,17.17332476,1
232.0718109,-7.763197948,-4.020612141,-17.52770252,19.58706001,1
292.3491128,-0.687081753,-1.911239035,-4.454976649,4.896093639,1
85.75849646,5.403766326,-7.869181071,-9.753158632,13.64730027,1
19.08832079,0.01273465097,-0.6367278707,-2.4541495,2.535435726E0,1
181.4815992,-3.569609966,-7.582824209,0.4114966321,8.391106469,1
114.9017505,7.817698091,-2.875585814,50.55756188,51.23916921,1
30.54178212,1.682838313,0.9725720572,1.315654512,2.347080737E0,1
239.469676,-0.7371159388,-2.367729114,-22.66920134,22.80443313,1
30.88217912,-0.9771583939,-0.9626528406,-0.1780097097,1.383194301E0,1
299.9578381,3.410090321,-1.125711732,26.90159145,27.14022043,1
31.32984988,4.35106461,-6.651210728,1.645933903,8.116616648E0,1
115.734877,8.793075643,-6.041632649,1.0578689,10.7209417,1
21.59128113,-4.797030578,-6.287513915,-11.39864873,1.387348285E1,1
42.30685992,-1.241245185,5.324157654,1.284048557,5.615703432,1
16.81236742,-2.329880526,-11.98092382,1.825269616,1.234108942E1,1
96.24910683,-0.07550737979,-10.85752401,2.810307498,11.21558546,1
34.63654713,1.281061507,1.333554009,6.697307838,6.947907394E0,1
78.31436154,-1.831923601,-0.3278292619,10.59085472,10.7531214,1
109.387552,0.3424949558,7.786317254,0.4465658927,7.806629252,1
87.66951158,-1.574648451,1.99042963,-0.4531369936,2.578111904,1
74.75647346,0.4054646079,-2.604445161,-7.237843164,7.702850758,1
31.21256512,-2.333033198,0.6874065658,-2.467563012,3.464742257E0,1
17.63600012,1.501392194,4.624547072,-1.992723493,5.254670405E0,1
26.86849154,3.094939723,-11.93500213,3.199132136,12.73802866,1
5.377037667,-10.03669538,-7.644586009,-4.755472078,13.48293233,1
136.0611544,-15.37999682,10.28579963,31.04454722,36.140087,1
10.03751529,1.046646339,-0.1798963138,-0.9795325828,1.444754416E0,1
256.7849398,2.041662934,3.232244626,11.81419515,12.41736686,1
203.1831273,0.7749135102,0.2870166468,-6.743517798,6.793960686,1
285.3527078,2.875882852,-4.903077728,-17.02494722,17.9488078,1
19.25079567,-0.2289519681,-2.517658155,-6.884715192,7.334188767,1
17.4731695,1.693240802,6.360787128,0.816746099,6.632778565E0,1
1.469012042,-2.469879387,-1.660844888,-4.8886506,5.723426825,1
0.7963036667,-1.071430055,0.6143704569,-0.726390245,1.432848983E0,1
114.4199425,20.00965845,-11.55400457,45.38691118,50.92988474,1
153.2656973,22.19152358,2.927755256,23.4285769,32.40268022,1
41.81384592,-5.111442965,3.129526881,0.8103603548,6.047931183,1
96.71045483,-2.225603474,-3.740750366,-4.392952016,6.184217941,1
51.60383529,0.2547646478,-0.2287448305,-4.08103259,4.095370096,1
161.3836622,-1.124504647,8.716701651,1.061630999,8.852822078,1
297.9402203,0.7994365865,-0.3578384882,-5.558142759,5.626730682,1
1.186779667,-1.325367322,-1.388744123,0.2851581824,1.940753453E0,1
287.3402078,3.430135746,-2.74877257,-13.83719494,14.5185931,1
80.60348246,0.9736673138,1.842343047,-0.5179212195,2.1472071,1
32.66990721,0.5954319832,-2.478996658,-8.43831279,8.815048861,1
38.58847963,-0.02944756474,0.01833102107,-1.12580536,1.126339600E0,1
25.11239437,5.917081109,4.71046372,2.78614154,8.059956699E0,1
60.67639737,-0.363108876,-0.5160764229,-1.351281012,1.491356196E0,1
200.7841107,-9.103152319,-13.24559354,-16.30851245,22.89717687,1
149.2907855,3.853490531,-2.947500719,33.59232409,33.94085131,1
231.9312819,-1.450675931,-7.046501802,-16.03448853,17.57448351,1
163.5041148,-2.34823552,-8.24129729,-15.03798616,17.30821247,1
23.58054838,-4.908391385,-2.41173906,2.035047979,5.835255912E0,1
1.877623,0.9527298233,-4.093360274,-5.262433861,6.734723646E0,1
33.15482562,-4.707153611,-0.4433736053,-11.35613947,1.230104788E1,1
34.16322625,0.419415297,10.89967775,0.625668447,1.092567368E1,1
39.58204738,-8.321799417,1.13018317,2.037006211,8.641704336E0,1
26.90310129,-2.160786212,1.271986921,-8.438552526,8.803187861,1
6.79360075,1.406116055,0.04790711492,-0.240377866,1.427318804E0,1
208.9949765,-2.3385059,-3.551048272,-13.6189862,14.26728211,1
172.5666299,-0.7925155297,-0.2287933624,-1.567378754,1.77118701,1
5.771526083,-0.3668967754,-4.490869782,-10.39524548,11.32976845,1
18.68784579,0.3306863576,0.4383879769,-0.6813830566,8.751116245E-1,1
177.4765617,-10.54962834,1.956326622,13.19704644,17.00834815,1
10.48733375,0.1786502722,0.9224912399,-0.6878079041,1.164467999E0,1
184.492907,-3.87963928,1.692465169,3.289471033,5.360658445,1
121.4563517,6.155943961,0.303176012,8.173417549,10.23681182,1
43.74693733,0.8553045394,0.4174391574,-0.6704511023,1.164176097E0,1
62.42459054,1.832103987,0.2572003055,-9.862161841,10.03419121,1
15.78068033,0.004908006638,0.4372299358,0.4831028044,0.6515998964,1
185.234021,1.191386561,-6.683751653,0.1370726951,6.790487981,1
196.8884645,-0.1445794237,0.09121890306,0.2134403282,0.2734609145,1
110.1639677,-2.491853516,-0.2191012004,17.12916332,17.31085137,1
16.77231942,-4.907157038,-16.55884461,0.740503377,1.728652279E1,1
108.2568078,15.41385921,-17.79420457,47.67022083,53.16644361,1
36.10992979,-1.355565267,-1.959810978,0.3668630809,2.411017375,1
60.57438317,0.05648892716,-10.36135852,1.512520177,1.047132555E1,1
137.2054478,0.1764145893,-10.8315764,-14.30248595,17.94199749,1
54.89772467,-1.995881867,-8.519016645,-2.578264838,9.121657667E0,1
41.59203329,-0.6277392384,0.2807511359,0.6914010912,9.751477943E-1,1
44.14061087,5.972996278,3.976668561,17.29237548,18.72209462,1
61.07275342,-0.6390484844,-0.7741503024,-2.026232716,2.261263071,1
167.2381284,0.4435478158,-1.66155591,11.04951149,11.18254026,1
30.28295371,-1.454271968,-3.668787514,-5.379950032,6.672238839,1
30.52365471,-0.575806279,0.794219116,-2.568703471,2.749649868,1
196.6778415,-0.3714367729,-0.4422114712,1.703051845,1.798305271,1
125.768818,0.3215776016,-0.06119374305,0.1462809634,0.3585456014,1
132.618985,-0.8774046756,-7.175222992,2.351061918,7.601391721,1
281.3676683,1.427770194,-4.736997215,-4.819209652,6.906696172,1
30.04079221,-1.41766679,0.2695665818,0.2422630266,1.463262330E0,1
125.6019097,2.753967236,-0.5317972469,1.869412732,3.370734017,1
176.3623778,3.737171286,5.881845202,12.43242243,14.25228682,1
23.23240158,-0.1129874657,-0.4845912132,-2.604953284,2.652051362,1
47.12857842,0.9314613073,-3.471998302,0.1503436089,3.597915449E0,1
143.4087192,3.768661466,-12.72300565,-12.73935681,18.39480617,1
86.38030787,-3.182963708,-3.806170185,-3.370319899,5.998103506,1
64.50669846,0.3545250173,-4.970549626,-2.421386966,5.540321869,1
266.3710887,4.745042984,-3.455672291,8.813355541,10.58925587,1
22.44228512,-1.463777348,-0.7251266617,1.330857273,2.107043873E0,1
53.818751,3.804629736,6.02547153,-4.342116616,8.344788271,1
142.1971732,4.989403389,9.816359432,-0.3648949081,11.01763164,1
28.37631588,3.505775912,-2.219652763,-1.043419846,4.278556779E0,1
287.2097148,-2.294577815,-6.169146974,-18.40286932,19.54454044,1
112.3120305,2.580711898,-12.51453721,-10.56541115,16.58015767,1
139.7198827,0.4123914023,-1.434338956,2.68386029,3.070912074,1
27.93874142,-1.058595124,0.2160607579,-1.305948719,1.694935971E0,1
224.1620327,-2.858368687,6.047105058,-2.68005843,7.205585634,1
0.5860466667,-2.536104074,2.888294737,-4.865286296,6.200409753E0,1
33.13219658,-0.1270541489,3.854948827,0.399990335,3.877726845,1
129.018386,9.734443449,-1.93418117,1.104567688,9.986016014,1
98.64611175,0.3379771777,6.513511139,1.39345347,6.669465383,1
21.69827854,2.077097353,-1.345244932,1.575843329,2.933819957E0,1
128.6834725,-6.226309354,10.49293491,21.32070711,24.56503944,1
271.8417253,-7.530444852,-3.351552384,-10.08303924,13.02337066,1
210.6813178,-0.4485299724,-6.018488785,-16.91721929,17.96150592,1
166.7864324,-1.661593039,-0.7033086535,-1.247806345,2.19375367,1
68.61863725,1.131164114,8.768056576,2.421818636,9.16643627,1
1.426158375,0.7267220744,-3.739638811,-3.304759748,5.043258907E0,1
26.99763929,-2.964058279,0.8697701123,-1.849253286,3.600260997E0,1
66.68060904,59.43540812,-10.59289072,-9.257363276,61.07762149,1
296.1333991,11.98548699,-1.569154115,-10.60280292,16.07897922,1
179.7578507,1.552418945,11.52432645,-0.2324256527,11.63074057,1
26.43685654,4.126704314,-13.71812808,3.873152379,14.83974515,1
6.69998975,1.254037284,3.895767655,-0.6821753544,4.149093678E0,1
19.255327,2.69447708,-0.8360530204,-0.8512750769,2.946839093E0,1
21.36764808,5.445066964,-5.32684445,6.504132205,10.01637468,1
210.7616198,-4.951066704,-4.453175999,-18.64136321,19.79505646,1
58.231584,1.353281052,-1.82982869,-5.018899083,5.510806715,1
14.38272404,-1.22412366,-0.918618629,-2.391270881,2.839104674E0,1
201.4767138,-0.4573200917,-2.064421905,-7.549533672,7.840053452,1
175.0339084,-7.657839893,-1.615472834,9.191819497,12.07235727,1
78.78819946,-3.620205046,8.874399887,-11.8960129,15.27664822,1
83.49382567,-7.459953158,-10.95245121,18.02872119,22.37502797,1
99.27308258,-0.6651761828,-1.994642842,-0.3270412034,2.127913384,1
38.99435079,-0.8509148884,5.226046638,0.8092803741,5.356356442,1
90.00829417,21.14980235,-0.001420873404,20.49551062,29.45131741,1
37.86762563,-5.288814744,5.16639042,0.6124759591,7.418778752E0,1
103.237967,10.04087614,-1.12344864,-13.14619438,16.58022187,1
77.24370596,2.175553793,8.704914249,1.839682564,9.159312109,1
224.8144889,25.63659078,-7.783118243,9.1811992,28.32147834,1
221.1808132,-4.425986738,5.924451524,-5.066905893,8.964486589,1
60.29596487,-2.761037982,-1.850665681,-6.691660597,7.471721070E0,1
278.5068723,6.707217114,-15.47623497,-17.32072746,24.1766046,1
213.6524918,1.373227367,-3.845206196,-2.112109019,4.596995606,1
172.3974949,2.867879768,6.904332601,14.96793184,16.73121414,1
124.5579912,3.68531233,-5.562694817,-6.303627672,9.179369391,1
41.22276717,-6.998427165,20.88987491,4.009895364,22.39294793,1
103.699701,-7.556291299,-4.654871317,-32.96548854,34.13925599,1
86.54077487,0.9074576099,-2.372426182,1.359820286,2.881145001,1
143.3104496,-2.458902701,0.2427933508,-0.6342123985,2.550955992,1
42.78596179,-0.9274186885,-1.361170993,1.729333325,2.388197154E0,1
61.29032042,3.151673795,-5.755415536,-11.9735306,13.65369147,1
30.67409133,-0.4595175485,0.6663364166,0.8026420301,1.139910008,1
106.649531,-0.3753873711,10.18418438,0.4644630504,10.20167893,1
68.34785125,0.4117984946,8.788321272,3.147983032,9.344194237,1
171.3335005,-6.438339919,-14.27280549,0.4295645285,15.66364335,1
68.99974433,1.236920584,2.765704937,-7.030865178,7.655857985,1
161.0749988,3.70874914,-7.887691602,-3.874593717,9.538499644,1
285.924866,1.993152825,-2.5102816,-4.653104873,5.650270512,1
60.70167242,-0.1003335428,0.3457455692,0.8543957359,0.9271455613,1
60.12604633,-2.976539746,-2.338336623,3.009934656,4.836043182E0,1
160.4024758,13.4870777,-10.64815743,-3.53477284,17.54363533,1
29.01958471,0.3771122266,0.6049488384,0.6740015316,9.810478037E-1,1
117.3107925,-1.972336591,-3.629487793,-13.03501893,13.67388064,1
171.3033865,-7.493806783,-11.32250044,9.023864075,16.30295308,1
113.3459107,-6.378265625,-8.362409499,-30.54713628,32.30696055,1
18.98000567,-0.908041162,-0.4488501075,7.183195671,7.254261176,1
33.55250054,1.049842208,2.399248822,-0.1707849631,2.624448719E0,1
54.44056004,0.8824671949,2.977746611,12.66810732,13.04326133,1
36.35583238,-1.429891272,3.708543318,-0.5177862219,4.008239659E0,1
244.9704041,-4.450800275,0.2485385326,-10.64587819,11.54149544,1
155.8855267,10.74718471,1.133436269,-2.384844791,11.06680359,1
4.297015167,0.337922287,9.888287201,4.290756428,1.078438714E1,1
111.2279604,4.629388274,-10.89529468,-6.149771056,13.34010367,1
63.48372858,-0.2314675865,0.1027811873,0.1097180316,0.2760059103,1
59.4149655,-1.448444487,-1.993748802,-1.564600888,2.919075480E0,1
200.3524887,-2.500725203,-15.12812917,-19.60852542,24.89193018,1
86.69585429,-1.482784454,-1.914020555,-10.75207298,11.02130654,1
132.8691777,-2.991584632,-11.18409568,-8.955652211,14.6368467,1
38.52840863,1.630294063,2.006922287,1.302678663,2.895266395E0,1
62.35432654,3.418290457,2.033537935,1.261366623,4.172652866,1
19.20946658,-0.9613167518,0.3578216775,4.068323082,4.195642853,1
103.689663,-3.539024058,-6.059676572,-28.89566506,29.73556508,1
40.69075817,-0.7340290475,12.12601546,1.047781284,12.19331355,1
133.4212492,-2.330874406,-16.22627136,-9.662788745,19.02877673,1
48.09972442,4.4706811,0.009445007443,1.085180148,4.600510261E0,1
8.699615667,-4.682934444,1.23479629,-8.968123738,10.19224412,1
48.54024442,0.5216043806,1.112764315,1.028777248,1.602715875E0,1
19.826017,-0.4551791337,-36.35272677,1.837601539,3.640198774E1,1
208.4930895,-0.01206777602,1.006039912,-5.916687591,6.001620946,1
229.5222102,-12.73826572,1.808290909,-14.10915712,19.09454488,1
110.3202852,3.165455098,11.3721129,-1.307742645,11.87666824,1
249.2164068,-8.242846802,5.132855469,1.468562125,9.82076389,1
191.1880532,-1.494791273,-5.104680076,3.190453114,6.202511644,1
7.043109958,-0.9320564076,2.219424722,-0.8425381672,2.550381502E0,1
75.21270017,1.594051413,-6.438220636,-12.18634352,13.8743884,1
12.25017238,4.262509991,7.143704161,7.640733279,1.129523376E1,1
187.4239147,-11.55042725,3.162438519,20.6117673,23.83816977,1
85.09985871,3.051519469,1.942220214,-6.400144737,7.351587793,1
42.91596233,1.885721055,-0.995011332,0.9193962356,2.321913195E0,1
41.74473817,-4.337514857,11.90481763,0.6564376652,12.68738068,1
5.969085625,0.9870493247,0.2941494459,1.495139767,1.815553135E0,1
56.27139279,0.2316035342,0.2676975194,-4.05041306,4.065851463E0,1
257.7987617,-0.5272677013,-13.73349808,-16.41434471,21.40835568,1
169.7776595,-4.369216706,9.17248334,19.03546672,21.57715223,1
110.4406382,2.42768237,8.698055465,2.550267785,9.383692041,1
2.154353,7.490282666,-11.13064745,4.107683322,1.403099103E1,1
299.4860561,12.46790333,-9.955640109,36.38640206,39.73076438,1
30.34154975,0.5054309821,0.3170442188,-0.3666262686,7.002801833E-1,1
109.2505387,-1.661224519,-3.292158998,17.28552956,17.67448754,1
139.6646751,0.4944811937,-10.44124084,-9.566972176,14.17007335,1
90.00086483,-3.88368146,-0.2173214176,2.984787244,4.902975135,1
25.35859954,-1.216721304,0.2306703186,-5.307779018,5.450333718,1
134.1841112,-7.470931306,15.5305673,12.33631174,21.19428986,1
90.20144983,9.258446181,-1.057198956,-9.618041757,13.39190885,1
76.96288896,-7.074538617,7.50329389,-5.796136715,11.82978092,1
32.97426121,-2.053841368,11.61228962,-0.8429825556,1.182261199E1,1
64.07544646,-0.08150726259,-0.004293610454,0.1836496416,0.2009702958,1
101.5646473,-3.779647214,4.033010577,1.555792642,5.742072633,1
57.1924405,-1.945421565,-3.781130945,-1.5258204,4.517714487E0,1
60.13578287,2.8652187,1.401993621,3.84601662,4.996689720E0,1
17.77616983,-2.367539372,0.1889638835,0.4037291908,2.409138287E0,1
108.5478998,-2.615577967,-11.48536762,-27.43592171,29.85774133,1
285.944942,1.92060452,-2.21989206,-9.352803869,9.802631417,1
25.89588188,-6.976370882,0.5200238782,-1.247317518,7.106052105E0,1
115.564237,0.1097000514,-11.61223583,-16.84348122,20.45871244,1
5.929126667,-13.54613925,-10.34023721,-3.867396964,17.47498651,1
25.44279138,-26.36428846,-51.10017414,21.19804656,6.128344541E1,1
53.78204267,1.88412608,-7.211393868,-8.909099019,11.61577281,1
296.2538531,2.010919443,-1.328722454,13.41365304,13.62847711,1
152.8284649,2.889325601,8.344248047,1.171994782,8.907763449,1
75.43353117,2.824054302,1.813427542,10.06697109,10.61167796,1
58.301789,-0.9397899351,-1.16601827,-0.1592594433,1.506043591,1
281.447972,8.580132912,-10.37397564,-12.90406118,18.64813252,1
159.1377297,9.151141587,-1.496165953,14.85889998,17.51481697,1
217.436725,1.325186058,-9.945639031,-18.15839606,20.74606472,1
165.3252779,1.427965638,-14.0316897,-1.168938808,14.15251991,1
167.1477894,3.140922812,-0.3444461717,24.76424935,24.96501723,1
78.25665346,-1.624108002,-2.245637497,-11.86924317,12.18850065,1
2.427401125,4.736049966,12.84310045,0.974139038,1.372313176E1,1
8.124438708,2.340198669,-1.918404213,-0.9424974883,3.169401528E0,1
8.104414708,1.527605847,-3.798568804,-0.2718335474,4.103242384E0,1
21.37699292,-0.5972882549,-3.066219954,-0.8110485721,3.227422788,1
1.446183375,0.1080635619,-3.934132991,-1.455569612,4.196160509E0,1
262.6068929,1.612095482,-0.211684117,1.09741245,1.96162588,1
245.1008961,1.038860479,-1.374245367,12.11189911,12.23380078,1
135.0473507,-1.862721763,-0.9752345869,3.634884188,4.199190151,1
118.8365195,-4.290441263,-9.639895726,-19.5573693,22.22219993,1
34.89887671,-1.373370039,4.457211455,0.3039593196,4.673892434,1
20.65702154,-1.402002246,1.70027851,1.633820227,2.743342094E0,1
10.65754075,0.5949876679,1.077857607,-0.3954249752,1.293115717E0,1
54.98213504,1.434687158,-0.3191158873,2.743130592,3.112061637,1
27.77811421,-2.484412641,3.266709577,3.376082915,5.314285792E0,1
297.2877579,-3.72886824,-3.407996433,-14.57100881,15.42184151,1
148.3252086,1.850082714,9.868607812,0.01638978202,10.04054256,1
206.3349769,-0.6443894043,-1.23819747,-8.567817507,8.680775743,1
154.480253,3.835767621,-11.12492419,-8.582840758,14.56510237,1
145.014744,-2.450523641,-8.25504351,-6.852198241,11.00470037,1
49.91415313,0.04440828726,0.3856683111,-0.1756006569,4.260841852E-1,1
125.678552,-0.04383599102,-0.3369721144,-0.1055404884,0.3558238254,1
17.19547013,1.158507229,10.69463344,4.701169571,1.173960471E1,1
16.74554079,2.474182353,-0.2208353019,6.218543082,6.696314256E0,1
207.6499197,-0.768857549,-1.845814246,-10.5183165,10.70668736,1
160.0196444,1.973695776,-6.619552733,3.621523593,7.79931962,1
159.0473907,19.27624687,-4.955541578,4.361859739,20.37539953,1
182.2251344,-2.561915146,-3.872197528,0.1316980076,4.644853849,1
140.0862561,-4.129704813,-1.165225826,3.211301361,5.359540046,1
249.0056118,5.645245807,-8.553241568,-17.02371112,19.87041725,1
162.7677411,-1.273154025,0.722641595,0.9483669233,1.744285489,1
177.9926405,-4.288759604,1.523610737,2.19527499,5.053125854,1
22.99381196,1.80822659,5.40517492,-0.4375167783,5.716381744,1
15.72432442,0.7052089986,0.5788831204,1.297783667,1.586400909E0,1
17.4331205,3.921543058,4.582461737,0.2256206632,6.035591124E0,1
70.68463858,1.766358479,3.139154906,-0.2733128929,3.612342141,1
124.2311097,0.6151209471,-0.1618023974,0.2353211939,0.6781812882,1
143.5210696,-0.3379810515,2.219682584,0.9507549262,2.438269241,1
275.3248664,0.5392629719,-3.919524892,-3.12845801,5.043880396,1
267.7262,-4.809599753,-1.929239396,-17.13919948,17.90548444,1
0.7262176667,-4.185006609,-2.859144613,-8.939282931,1.027617475E1,1
31.04197658,0.3565323664,1.396636695,-0.2674364412,1.466025796E0,1
63.96037146,3.761670535,4.308978691,6.028324971,8.310124218,1
195.2536303,-2.301451802,2.460909466,-3.016564229,4.522434692,1
21.92167112,2.070421002,0.9713879961,-2.66338451,3.510534833E0,1
145.9181241,-0.0842647364,-0.3927025115,0.1929674721,0.445592026,1
12.17672092,-2.191936084,11.17637735,-0.5035668898,1.140041991E1,1
115.4653731,1.904844519,6.615682461,2.39292155,7.288467645,1
49.63659217,1.801128655,-1.056194842,-4.945568567,5.368264191,1
174.3117784,0.5383535106,9.764098772,1.583501428,9.90630739,1
34.90642342,2.713557129,-2.024982874,-5.800071307,6.716008867,1
294.0053653,-2.59267647,-8.053394092,-16.10581638,18.19275814,1
4.787624167,1.666026106,-1.416220774,1.73414953,2.790806131E0,1
185.1437531,-2.86721494,8.285996915,4.187293455,9.71658854,1
104.422414,3.672273332,-6.200599732,-14.61298012,16.29331815,1
22.22150133,-1.112175062,0.4090454793,-2.238871391,2.533139688E0,1
61.92813846,3.611494156,-1.576437407,3.860640507,5.516574123E0,1
89.79025,-1.086292873,9.298739344,2.939043306,9.812469676,1
193.5485895,0.1982580328,-1.405387638,0.3986912298,1.474237212,1
111.7599574,4.465686409,-12.87938125,-9.997390398,16.90469258,1
52.67511354,-1.943686988,6.062416577,-0.0139198793,6.366396754E0,1
36.52845471,-0.1955940413,-0.7019670099,-0.2729386711,7.781453786E-1,1
1.803535417,-0.5664088898,-4.939427236,-18.98224887,19.62255163,1
17.32623079,-0.2463782056,-0.2697019449,-0.542977708,6.544204693E-1,1
251.173785,5.82270237,-11.0392274,-18.41205997,22.24347897,1
84.40455058,2.719757224,1.12905188,-3.339572901,4.452480731,1
135.2266599,10.52660551,-33.72527574,-0.5244367719,35.33381781,1
208.5332405,0.2030464639,-0.7413325853,-9.607990978,9.638687281,1
106.4098742,3.150193865,-17.66059803,-22.58714619,28.84440357,1
189.7272947,-0.5849580851,0.9180771768,-1.145820525,1.580489272,1
50.69039367,11.48568103,-0.6989992556,26.54458619,28.93137612,1
38.81875262,-0.4426467233,-9.151814017,-0.8769914237,9.204387535E0,1
72.59284967,-2.382381067,-0.3397018505,-6.165545674,6.618541407,1
165.4413843,-1.496153089,-1.003619822,7.196914993,7.418983234,1
20.58693654,-0.2588837188,1.420771077,0.391665654,1.496333258E0,1
149.2506344,2.668579177,-2.587839069,14.28551499,14.76123858,1
47.71919258,-8.495278704,-0.6267057431,-19.55556134,21.33031879,1
148.5580364,3.317428325,-2.240206895,-10.82808912,11.54432205,1
96.08863783,0.5349646106,8.70825067,2.129737204,8.980846142,1
56.11137996,-1.798258988,1.308978746,1.197341366,2.526021989E0,1
11.04688658,-0.9413701451,-1.887041794,-5.664215929,6.044042238,1
168.4745622,1.386425263,10.64927425,1.337359961,10.8220954,1
26.45693254,1.869679949,-14.36616447,2.101309211,14.6389168,1
230.4858394,3.534483695,-14.97206231,-16.79491542,22.77552214,1
73.01139996,2.246730634,9.112754032,1.014859194,9.440340236,1
43.37414013,-1.811950974,-0.3415025371,-0.815400947,2.016102433E0,1
49.65665117,0.4795758736,0.6709481156,1.063816688,1.346057331,1
16.97520413,1.686497208,-1.06628012,0.3454162247,2.024978641E0,1
29.60096571,-5.824325557,-5.276679432,-11.75509266,14.14030825,1
129.1788585,-2.525078564,-3.595003254,4.57797283,6.344911771,1
55.08695892,-2.943762009,-2.21327462,-5.676283997,6.76642589,1
58.8343065,4.141606528,0.2974981463,13.4908702,1.411541670E1,1
300.1887091,-4.290309116,-6.040788896,-13.62227468,15.50690976,1
41.63445933,-0.9317753027,0.6443555635,0.8810034907,1.435118970E0,1
67.55554987,2.551057451,-7.803476493,-23.47345779,24.86775744,1
210.7114308,-2.173485779,-6.026066777,-17.95469661,19.06328019,1
45.14857933,0.3021211012,-0.2250441277,-0.1744481707,4.151556135E-1,1
20.91733554,-1.576819961,-5.603379743,-1.255528032,5.954878368E0,1
4.313013708,-19.5092666,-13.97936998,-1.939321896,24.07893764,1
180.3796852,-0.1134129602,7.642293316,0.04093518734,7.643244424,1
5.378354625,4.069605961,13.45133951,6.62440066,1.553650255E1,1
141.9163479,-1.516578875,-7.763567492,0.3259737942,7.917022837,1
50.20446887,-1.479761882,-6.132714143,-8.782914936,1.081385559E1,1
186.6782862,-2.884315706,2.241632447,-0.118772445,3.654900821,1
195.283439,-1.733515254,-6.029847001,-8.523647055,10.5837937,1
60.47616888,6.49114203,1.135646809,7.764886624,1.018420752E1,1
53.55830017,1.331858316,-0.4942443815,-0.4660581708,1.495103442E0,1
175.0740274,1.921271395,-0.9449199897,2.005233026,2.93344798,1
146.8315592,6.145987322,10.17742968,12.34485452,17.13909765,1
124.0806677,-0.6995715518,0.8843282175,-1.139572045,1.603141041,1
304.1536812,1.638151406,-4.470444873,-7.984929044,9.296639674,1
59.65523787,-0.5762869567,-0.7319342825,-0.4761118734,1.046191649E0,1
27.96582379,-0.7713990413,9.16482758,4.74321339,1.034829427E1,1
148.9269806,1.428153772,-7.937075431,-0.8374944321,8.107908887,1
124.4016107,0.1438529071,-0.2283285087,0.5757852656,0.6358901154,1
101.0130333,-0.6259516715,-3.845447102,-0.7895635629,3.97525968,1
72.77352967,-0.1936578821,-5.362946913,-13.97748835,14.97227049,1
191.7501658,1.07312721,-6.450053061,-2.88140964,7.145439666,1
147.594421,28.71414176,-0.9696062033,65.53461538,71.55576766,1
59.75453854,5.580021286,-9.046761187,-8.008975718,13.30880226,1
277.7038423,1.537870634,0.5681179579,-4.45084676,4.743188905,1
103.478872,18.3245061,-31.52472525,61.47356506,71.47443618,1
193.8179331,-7.641306306,-2.817879058,32.89863381,33.89174105,1
44.725738,0.1523161671,-0.5792269367,0.4296966755,7.371182347E-1,1
33.32291708,-2.956953912,3.131788584,1.359320788,4.516572725,1
6.66995275,-0.4204605599,2.994075546,-0.7220513186,3.108477692E0,1
163.3836628,5.854563848,-0.9241766998,-4.61505821,7.511909392,1
14.28929892,1.660441869,0.008982492685,1.389604833,2.165213495E0,1
85.74227292,-3.688917723,-3.138615501,10.97916597,12.00004611,1
138.8673737,-0.2536284607,5.938191311,-0.07692662694,5.944103057,1
61.22005642,1.724240108,-3.72189485,-9.851081368,10.67095635,1
86.12957687,1.342361523,0.7903681397,5.33019315,5.553159035,1
23.65371267,-1.306821123,-1.106021306,-2.108921117,2.716360222E0,1
7.123207958,1.030910532,-0.6205878013,-1.058446605,1.602565119E0,1
182.4758744,2.612319022,-6.130686913,6.372654052,9.220642731,1
156.6985767,0.456013239,-14.9017589,-9.787883492,17.83460203,1
59.86574333,0.2465402466,1.293475438,0.5601268606,1.430944759E0,1
97.64697767,1.697409136,-0.9306928369,-0.7193770945,2.065161092,1
3.766356875,-3.672036812,-1.84529706,2.134880708,4.631057247E0,1
177.7820185,1.68228809,4.018166251,1.565870026,4.629006608,1
46.64038729,-1.077473006,0.2365897474,-1.786748305,2.099855303E0,1
107.0623242,7.250317029,-6.665873206,-4.326482915,10.75729599,1
130.8337297,11.73835676,-37.42681351,-4.410010976,39.47155413,1
17.5332425,-1.728344269,-2.152682848,3.247038374,4.261980239E0,1
27.79570317,-0.2607476285,1.00912768,-6.871167194,6.949767378,1
268.077525,-6.919942912,-3.938148859,-15.56025361,17.47901939,1
224.3226367,-13.59495064,-5.165499889,-16.56681787,22.04460311,1
147.4024925,-0.5699564321,-5.407840081,4.897717878,7.3182802,1
18.86805979,0.1210923278,-0.1133032519,-0.7874620736,8.047344258E-1,1
51.53377113,0.258797984,0.3395641851,-0.3186177045,5.327264533E-1,1
22.00176512,-1.917793763,-2.593946486,-3.055612228,4.443338539E0,1
49.46577708,3.745870481,-0.02278279871,18.66320373,19.03542062,1
127.9607606,-0.6800677255,-15.07345771,-15.13224094,21.36951883,1
111.7699954,4.238468871,-13.13705869,-10.93293905,17.60897742,1
143.7918666,-2.44889373,6.187653996,2.026636467,6.956392589,1
57.2124635,-2.198911227,-4.90421852,-1.588359295,5.604413896E0,1
46.89608967,-5.009472787,3.815407324,-16.19791236,17.37885254,1
32.16844604,-0.1055165148,-0.9704974651,2.33398571,2.529918646,1
74.01820942,-2.386330423,-0.9836063379,-10.99450556,11.29341431,1
195.4542233,1.046077259,-4.327299187,5.018731853,6.708760339,1
283.706495,1.404357651,-0.75895105,10.65477414,10.77369199,1
115.1727675,-5.503389432,-14.22975711,-22.89721235,27.51464366,1
95.48688058,0.5749723564,-7.055865533,-3.137789581,7.743484687,1
172.8976059,-0.3946725847,1.343783712,0.1008270478,1.404167799,1
71.74967854,-1.601613763,2.362600083,-6.816550691,7.390020915,1
100.8124469,-2.526484527,4.670626055,-0.6599610512,5.351020501,1
293.4231673,3.109708328,-0.4726563151,6.88769084,7.571920165,1
61.79767038,-0.5444541299,-0.1473586053,-1.451701094,1.557427663E0,1
8.408512667,-8.894964545,-13.15499327,-6.181166511,17.04057105,1
247.289143,-19.25415843,6.672297542,-11.01069533,23.16198573,1
192.894465,-2.18534481,-7.56968727,-7.765697048,11.06263748,1
132.117509,-0.02729100198,0.1023286128,-0.04266187012,0.1141752116,1
59.40499837,-5.366328943,8.098215923,-0.8869267201,9.755266602,1
9.46608325,3.839851901,10.28895713,6.024641225,1.252610887E1,1
13.39742479,-0.4977950301,-2.733006722,-3.159965732,4.207434974,1
3.911495292,-33.33052553,-12.43718206,-3.086448689,35.7090128,1
295.7118071,0.360781538,-4.651471161,-8.623352607,9.804517197,1
127.5893666,-1.044832241,-11.22563898,-10.06643783,15.1142256,1
26.79441704,3.950668332,0.1716327363,-2.977479686,4.950012459E0,1
57.2925545,-5.625990926,-4.460855439,-8.818125699,1.137147071E1,1
217.025178,-8.616023122,1.794525102,-2.610143858,9.179816215,1
125.5416837,1.068375908,1.856933312,-0.897068131,2.322576078,1
25.39273138,-0.764361771,1.570018333,-1.503003395,2.303958699E0,1
197.6423032,-0.3020013794,-4.465428547,-6.511697332,7.901484613,1
256.0722522,-9.453189452,4.666777418,3.779282348,11.19931147,1
43.49325667,-0.6069294365,0.2554245061,-0.4734741944,0.8110381199,1
182.8770594,1.343227935,9.704464774,0.6262788963,9.816981364,1
254.7071054,23.16639944,-7.810280898,14.6186145,28.48484581,1
216.493177,4.805629494,-12.40873652,-8.034054426,15.54402932,1
46.71540767,-0.7147572094,6.4101961,-5.023045344,8.175113237,1
20.65963233,0.3141497009,0.07555128872,-0.02175632,3.238384925E-1,1
106.930354,-0.6934343874,-12.15305416,-20.3048563,23.67413707,1
15.43968671,0.2489268608,-1.42655719,-3.956819603,4.213484469,1
38.25048112,-0.3450023881,0.4619721365,0.4543801117,7.341023012E-1,1
286.6676698,1.814589238,-3.021013376,5.838386942,6.819532095,1
4.467226167,-5.095481821,-19.72267945,2.563746786,2.053097214E1,1
34.15606708,-4.428233531,13.58293461,5.142476478,15.18388716,1
32.36903004,-1.521507493,0.9619972216,-2.110603361,2.773998964,1
88.78732887,1.67745829,1.647511628,2.873165066,3.7125784,1
55.00785467,1.013951048,0.7317445403,2.640437112,2.921550093E0,1
4.647450167,4.44347576,-0.3920423609,-2.470315589,5.099081599E0,1
21.20768554,2.076292484,7.645570096,1.478707044,8.059299417E0,1
43.85461967,0.7365405728,0.07951043844,-1.847109697,1.990132698,1
45.64924987,-0.4329817875,-4.694329498,-7.660280521,8.994670662E0,1
202.6009393,5.957667217,-1.406537931,28.49054423,29.1407491,1
2.698624625,-0.6200165284,0.008331405222,-1.859194722,1.959871150E0,1
287.8621785,12.49221605,-2.372698078,34.87792567,37.12350814,1
59.96663238,-0.3487636095,0.8658860993,0.5417462844,1.079297841,1
16.80235542,-2.337317453,-15.25444307,1.025312188,1.546649124E1,1
202.0287888,-0.7399787356,-8.019229395,-13.20248435,15.46483759,1
64.46894988,-6.62528125,-8.094838572,-2.294507064,1.070913282E1,1
61.54552054,0.3068755453,0.1645774859,-0.6983761617,7.803765837E-1,1
227.2034819,0.9185227346,5.176612523,-0.9987208056,5.35148993,1
227.9161651,-3.093392842,-3.761843027,-10.09142415,11.20523912,1
35.66774287,-0.9240448451,-0.980404695,-1.900040447,2.329207149E0,1
39.8299495,0.6607928907,-0.3216184956,0.564334517,9.265846686E-1,1
51.34577567,3.144557734,3.407522224,2.860392408,5.448054311E0,1
283.646268,8.958547168,-7.224585772,37.90209157,39.61084135,1
15.58352512,0.3032333878,-2.367691399,-2.240540187,3.273825496E0,1
50.07787504,-1.558641552,-2.723071718,-7.197392126,7.85155631,1
238.5060465,-4.250006305,1.570568849,-5.935056619,7.466869302,1
220.7893392,8.71901364,1.726883342,11.78841243,14.76380685,1
97.87385508,0.9849561676,7.463947976,-1.672031196,7.71209092,1
164.5229126,-7.8765854,-29.45043719,9.249388844,31.85780975,1
132.689192,-1.011046152,-12.25883029,0.4091833274,12.30725661,1
26.90455004,-5.157076975,5.56547049,-11.18054759,1.351201499E1,1
152.8685829,1.553479191,1.688051398,-0.4941090915,2.346691056,1
167.4589562,-0.8567870278,-10.29221754,-9.044818157,13.72853092,1
96.32934083,2.902826822,-5.63347887,-0.9768200594,6.412227785,1
9.346683625,4.27722714,4.387085797,1.170768694,6.237939815E0,1
54.82597592,7.412503003,2.592945442,15.22781952,17.13344841,1
233.4871412,-1.811407621,-0.1392179655,-0.9566091585,2.053212189,1
1.188195042,-1.64691609,-3.864615736,-8.949494509,9.886406797,1
39.21518592,-0.3293385744,-8.770020071,-0.9482733679,8.827283746,1
166.7595066,-0.9582636282,-0.9207856071,2.402104018,2.745217483,1
190.2889545,1.120189987,-0.7307306331,3.313982561,3.573691828,1
75.63428617,-4.691388933,-3.227607784,-10.25122388,11.72664373,1
111.087434,-4.352352459,-3.275829771,53.16944295,53.44776605,1
74.31519046,1.011277409,0.596617287,-0.3019817913,1.212364296,1
63.21963821,-1.250123597,-0.4266941303,-0.147083238,1.329101338E0,1
209.0451655,-2.866281139,-5.415406963,-14.51624612,15.75638289,1
1.120961292,14.86588857,-14.23311809,70.55395885,73.49447192,1
94.54412537,-0.4212755886,2.967808684,-0.6095359059,3.058904301,1
4.407152167,2.402830827,7.327810178,0.9903253734,7.775033269E0,1
251.6756765,24.22878473,5.290157849,48.0939475,54.11143655,1
44.28768762,0.08473507181,-1.112298877,0.4879384518,1.217568378E0,1
57.70682733,-5.148924202,0.06966489673,-12.28777284,13.32312407,1
133.2307855,1.235267137,10.30484401,0.05358507195,10.37875553,1
62.02825446,1.589633549,6.312121337,-1.654684846,6.716233508E0,1
1.763866917,-3.688881763,-10.21931445,0.09781368524,1.086516470E1,1
78.44720746,3.234095562,0.9481242639,-0.2647478914,3.380592429,1
217.9085,-12.16048363,11.05670356,-7.344215126,18.00182078,1
215.1581544,-1.673919408,-10.96264057,-2.69215632,11.41180092,1
17.80413717,-1.496890715,-1.390594767,-15.38193459,15.5170341,1
165.1046276,1.784888013,9.940949564,1.900601049,10.27718774,1
267.605746,6.781867931,-7.069429904,33.24686591,34.66013077,1
264.7750698,0.9783401893,-4.186818369,11.78180274,12.54182895,1
214.7867574,9.589258838,3.307211486,31.33510004,32.93599896,1
166.4652274,-0.1003870448,0.05050093979,0.2898131508,0.3108368801,1
146.3096012,8.054563535,10.76569816,30.74538262,33.55674005,1
4.500818375,-0.4147978239,-5.060652881,-8.316584285,9.744118174E0,1
7.155554292,-0.3498795872,-1.178247575,-2.093471603,2.427613319,1
69.14989921,2.119315566,-27.53957647,46.26136462,53.87980723,1
41.86235329,-1.507704848,1.03710076,1.38099627,2.292575537E0,1
34.33586921,-2.837450273,-6.664604945,-0.856706994,7.293972169E0,1
132.0762025,-4.275696924,2.271373432,17.65862168,18.31031515,1
39.7498555,-2.173040514,-0.4693811435,0.9764721501,2.428151888E0,1
11.16548317,0.829789483,-1.570637553,1.101967431,2.090403102E0,1
11.35779258,-1.119336074,-2.224982208,-6.985045227,7.415815255,1
48.34153942,-2.879608698,4.794714496,-2.296901498,6.0462542,1
52.07561329,3.021117749,-8.592675775,-10.73721637,14.08009392,1
217.537103,8.232627624,-3.139006679,6.526964997,10.96498028,1
53.59619617,0.6645408098,5.530059752,1.229240851,5.703876613E0,1
46.05972087,-1.975086098,0.0277865535,-1.439720149,2.444285436E0,1
58.472285,-2.416423264,0.3390960424,13.95395682,14.16569795,1
306.0909999,-3.343006093,-5.573803942,-9.069930194,11.15825317,1
143.6213646,-1.307097258,5.93147403,1.610130233,6.28358232,1
18.33615554,-1.148016886,-0.1620623061,-2.792186977,3.023328476,1
163.2732488,10.76949067,-4.740317849,50.94571877,52.2868894,1
39.00837108,-0.08030741394,0.03422316849,0.9683638161,0.9722905874,1
25.99345438,2.018774008,-1.442191767,2.420283011,3.465997035E0,1
241.5976942,8.365835382,-13.02450213,15.42594892,21.85371267,1
169.6973585,9.075547029,3.94071871,29.97703743,31.56766686,1
295.5010111,1.805987252,-2.662394869,-4.696553779,5.692763282,1
38.19041113,-0.06093938917,-0.6622761101,-1.255598345,1.420862576E0,1
171.4332871,4.047159377,10.25040059,-0.09855950673,11.02088586,1
226.9224239,-5.248683549,-11.45557839,-13.77429527,18.66842697,1
19.78858833,-0.3643783066,6.270021969,0.9405632293,6.350638254E0,1
206.7264479,-0.3928188711,1.025547612,-5.522150808,5.630293431,1
6.73002675,1.735800199,2.555615648,0.8215285367,3.196730018E0,1
20.89558892,-0.5635953193,-0.3942280501,1.526430264,1.674229611,1
9.231632458,-11.15111504,-5.829649447,-2.956671492,12.92571413,1
139.9557671,-7.919583485,7.130557281,23.04326176,25.38811852,1
12.09999237,-0.0382308501,0.3286176127,1.165564088,1.211606692E0,1
11.09870946,0.9612299207,-0.1143966812,-6.505467124,6.57709298,1
62.701458,-1.921944702,1.684564703,1.837952957,3.147967717,1
58.73442971,3.231760184,11.13852014,3.4290774,1.209419186E1,1
291.6665368,6.881203939,0.06101573188,6.847288334,9.707731357,1
32.72005321,0.4249535604,-2.821189166,-7.271467577,7.811141694,1
243.4045035,-4.215136142,-0.5186706863,-5.862322519,7.239006651,1
166.3447754,1.233831792,0.8544802281,-0.7867317563,1.694527724,1
65.87275483,0.259742419,-0.03569520503,-0.1053358358,2.825524911E-1,1
28.51899221,0.05166731313,-0.0007642310858,-0.2212504542,2.272044427E-1,1
124.5379162,0.967892896,-8.870421442,-7.373485118,11.57538233,1
28.39745617,-1.146516783,-1.305922699,-2.524702588,3.064972755,1
280.9059253,4.587620736,-15.55849126,-8.917714891,18.51049846,1
53.79857417,0.6162129146,0.5291122055,-0.3413183498,8.810086822E-1,1
32.88124758,-3.189513174,3.790820659,-0.8766893419,5.031093296,1
296.5449529,7.714049177,-1.643427202,-3.358193944,8.572331902,1
176.8292059,-1.789388177,-4.37816587,-2.367916517,5.289354881,1
113.7373807,2.864039024,-16.7562548,-24.66122843,29.95247873,1
241.3266728,-0.7226933429,-0.4649800173,-3.345921223,3.454516017,1
178.634534,0.3713550581,5.515134734,-1.330532168,5.685501874,1
15.31319813,9.36249446,-17.67163758,-1.744027817,2.007447908E1,1
190.8305555,7.18882654,9.938797789,0.1169489543,12.26672758,1
212.1869795,-0.3315163699,-0.8354542655,-13.68704545,13.71652654,1
157.5417405,-6.645902041,-14.73980155,-19.48851483,25.3225586,1
25.71965192,-0.3911809564,-0.8071057945,-0.1811818242,0.9150241296,1
44.06495712,3.009466587,9.144193926,0.434525964,9.636492334E0,1
136.1414554,-4.7156081,3.814037029,16.05381475,17.16125888,1
44.46543,-4.875617157,5.990550789,0.9380126739,7.780630385E0,1
189.4765537,-2.943913744,-2.655500125,0.6854527187,4.023450568,1
7.846384167,-6.132654501,-3.511821933,-6.249466082,9.433884186,1
22.89343096,7.600650616,16.28798053,1.515167942,18.03784725,1
14.80322642,-3.66848609,-3.696500393,-8.150564876,9.672311675E0,1
36.67863171,-0.6375325938,0.4658342224,0.1320172656,8.005484928E-1,1
250.1599639,-3.638420584,3.035229127,-9.218972213,10.36533496,1
238.5361595,-1.179782177,-0.2849887593,-7.354625509,7.454100949,1
90.13878517,0.5921362732,-3.760310472,-14.66189559,15.14799467,1
19.26969458,0.4058849131,1.804518724,9.987182329,10.15700946,1
29.85981571,22.7178876,-65.35907261,-0.4817544365,69.19640797,1
17.74390917,-0.2361709405,-2.557573003,-9.481375955,9.823107776,1
21.32749608,6.108871536,2.929528717,4.192101036,7.96706728,1
54.36935125,-1.039511494,0.8396543205,-0.702155875,1.509511973E0,1
6.68346675,-0.2660268968,0.05413001418,-0.1716912085,3.212136973E-1,1
26.01602388,4.225829237,1.701810481,-1.18148781,4.706347321E0,1
300.5601123,-0.6924075432,-5.177663852,-9.158590356,10.54359561,1
12.04980821,-5.771059762,-6.445740155,-8.072232066,11.83273542,1
47.83964658,9.40742388,-19.51213992,55.12694574,59.23008843,1
30.11087521,0.7218892045,-0.1719326985,-0.1221448267,7.520666427E-1,1
42.92920892,4.80891212,-10.26045078,0.2552771562,11.33435717,1
152.733701,4.849394733,-5.004339516,-9.446877383,11.73897506,1
123.87543,5.353148734,-8.070721731,-6.313621733,11.56090697,1
166.5354914,0.2970396515,-0.2198164245,1.587355912,1.629800788,1
16.03406921,-0.05816356972,-0.1644845152,-0.3762905467,4.147682872E-1,1
18.35423742,2.289216357,9.045264884,-2.268234354,9.602198469E0,1
6.924883292,0.3857662885,0.694523212,-1.616827049,1.801473793,1
280.2133126,3.914641297,-8.852544165,-16.37148462,19.01887124,1
63.17742446,4.481320109,0.4056309977,-6.436716147,7.853539405,1
224.8546399,53.28208371,6.939813505,51.83457507,74.65898894,1
89.409139,2.975551566,11.68887879,-6.412118665,13.66012666,1
188.9496454,-2.786036291,-6.455876888,1.234802138,7.138983186,1
163.5643408,-7.300203719,-7.527667424,-17.1589654,20.10942179,1
20.85726254,-3.642254604,-20.93255958,1.923198637,2.133393452E1,1
7.105408292,-0.2593187882,-0.8090087709,-2.954557139,3.07427216,1
286.296268,3.517072733,-2.432421246,2.063476557,4.748095326,1
103.0572887,12.01862901,-1.48996922,-25.83802268,28.53543179,1
22.68947388,-3.240079603,-21.59415332,-3.584287062,2.212809723E1,1
221.9436838,-1.562994658,3.165163906,-0.3404055995,3.546419437,1
67.20452987,3.483766408,10.03175448,3.701672547,11.24611515,1
195.3739863,-2.125198596,-0.01810239494,1.947528317,2.882648662,1
7.9415225,-2.327913522,-0.6495671868,0.3371823218,2.440248105E0,1
66.13306183,0.01993812829,-0.1607250479,-0.1438684022,2.166291466E-1,1
129.3092425,-11.59723187,-0.5750181109,-0.9892220038,11.65353994,1
79.81117625,-3.446800018,2.046642423,-1.507512475,4.282729204,1
134.1539982,-10.81216014,17.80167732,18.12556862,27.61048279,1
179.8180277,0.5183954652,11.97801659,-0.2129520857,11.99112021,1
53.05782221,0.01296985522,-0.3285948086,-0.2047986551,3.874083821E-1,1
104.1020721,7.157560893,-1.292480242,-11.1632141,13.32360808,1
115.744915,13.39994951,-4.790668515,8.178114617,16.41312616,1
31.48596896,-1.350811481,4.147397318,2.266847541,4.915708895,1
85.61808646,1.438154411,7.306370192,2.226361274,7.772259518,1
26.947129,0.7037876867,0.2812925881,-0.4971501553,9.064220347E-1,1
22.93358296,4.570267077,12.04875503,4.41418121,13.62148431,1
238.5662725,-0.09745554328,-2.07425239,-9.830724871,10.0476451,1
89.93065983,-5.693889964,-20.9607338,2.113909961,21.82295488,1
62.03311742,1.675450794,-3.913904841,-9.954620354,10.82683023,1
3.205659875,-1.149477374,-1.349510475,0.185216403,1.782352904E0,1
156.8290667,0.2006502018,0.10557908,28.3720469,28.37295284,1
39.6997955,2.461809937,1.137532536,0.8153322423,2.831828932E0,1
182.2444632,-0.6419161052,-9.541526847,-8.025722144,12.48459077,1
37.710107,-3.927283855,-7.342042301,-7.10743973,1.094736695E1,1
233.0053262,1.191143025,-0.5173549166,-7.29473014,7.409424109,1
177.9784467,1.042674472,-9.741431456,-8.356559359,12.87690728,1
143.8704512,4.801093808,-15.333039,-13.88169926,21.23332666,1
266.1703318,-2.775385295,-0.7627192151,-13.59062955,13.89207384,1
28.20690117,0.3916700394,0.7492639679,-2.821648757,2.945590539,1
164.1117014,1.577785482,12.51035178,-0.5301535946,12.62059315,1
75.91534217,-1.352119211,0.1077932744,-3.604987959,3.8517248,1
186.3900313,-0.5302945125,-9.972236845,-4.071519755,10.78443291,1
144.5240211,1.894302428,-0.655291611,1.22201837,2.347576981,1
24.76501987,-9.338744824,-6.68635074,-7.527393774,1.373248332E1,1
165.6321003,-3.030542291,-3.828569406,-12.29161563,13.22595724,1
276.9008135,-0.7112860098,0.5167636169,-3.350230621,3.463671121,1
96.39226671,0.5813814529,-0.8095741966,3.593880588,3.72952979,1
39.23526092,0.9375311556,-2.41388031,-0.8465400016,2.724410541,1
146.6101602,5.344201325,-15.54629982,0.5733159864,16.44921327,1
8.730139208,0.5534534334,0.104010272,1.825628781,1.910510216,1
51.31574067,3.08300234,4.501488326,5.015795381,7.411241723E0,1
60.93698712,-0.3704548793,-0.2596573055,-0.1578909755,4.791537269E-1,1
59.83484054,5.612938771,-6.750868333,-8.313691083,12.0911854,1
33.63504121,-0.01887101144,-0.01228792369,-0.07302351912,7.641689922E-2,1
106.810001,1.912189646,8.651181845,2.758028128,9.279339185,1
158.7663357,2.489836811,-1.960174382,-4.278239878,5.323993558,1
17.19181517,2.537195165,0.3798399527,18.49976236,18.67679965,1
38.23806463,-0.1218315621,0.1190060413,0.4702845383,5.001728844E-1,1
97.29565867,0.2073180925,2.170414529,-0.0262382108,2.180451436,1
52.57726233,0.03425225839,3.062686189,-0.5863003135,3.118488090E0,1
51.01539767,0.02955504388,-0.5988937542,0.5230194068,7.956736324E-1,1
218.9423909,16.46496639,1.914661702,6.692929443,17.87613919,1
241.9490182,-1.868294452,-5.331093037,-10.65284105,12.05794757,1
1.238341042,-0.3187951675,-3.443233801,-8.350025681,9.037721961,1
185.526789,0.9535126193,3.202693675,37.66105297,37.80901141,1
41.93419592,5.565437161,6.168155871,1.353559672,8.417384477,1
42.54315679,-2.18700425,-24.17317303,-2.338187519,2.438426548E1,1
184.2218891,-2.798110791,-8.39848448,-10.79561135,13.96098814,1
82.17806658,0.6570665333,0.9929431719,0.6765678746,1.369458528,1
100.859035,-5.417157034,-1.867713384,-1.452975787,5.911436565,1
3.666231875,-2.144747884,-5.934323378,4.971561779,8.033216290E0,1
204.5884103,-0.01175641179,-2.770689688,-11.17803095,11.51630303,1
249.0658388,17.17384657,-2.650244063,17.50460368,24.66527821,1
187.8316932,-1.038522218,7.751918085,-3.159962223,8.43540892,1
78.63776146,3.273892297,5.635051771,0.7589229834,6.561108392,1
16.42892179,0.397792659,-1.186273902,-3.088025098,3.331873914,1
60.05980325,0.6787181881,-0.2680512759,1.557045701,1.719564241,1
50.21450413,-1.258663309,-0.8136119914,-0.3338830304,1.535472460E0,1
45.54670954,0.6246729586,-9.162552429,-1.592491522,9.320869732E0,1
23.29019838,-0.7843421455,3.983408062,-0.7924111569,4.136501883E0,1
198.1943772,2.872438257,-12.09553977,-8.4549756,15.03461328,1
1.783459417,-0.60526097,-6.760931976,-24.73152833,25.64615051,1
79.14749254,3.160736687,3.720830949,4.705418742,6.780546062,1
51.20338213,0.9774811602,2.611643668,1.964541668,3.411096016E0,1
22.08906817,7.505766093,-7.855790362,36.56147939,38.14173229,1
73.98809642,-2.042451577,-1.132150759,-10.38642203,10.64570976,1
3.605224167,0.8678036937,3.053497582,5.792959923,6.605703249,1
59.51531937,-3.537878588,6.446751139,8.888495185,11.53614025,1
280.6349033,7.278820451,-12.45217432,-8.393385708,16.68792366,1
119.9908521,7.421611211,-1.078228028,27.61047045,28.61085401,1
173.2285819,3.671864026,6.842112964,2.932278078,8.300322281,1
114.2493015,-9.508043352,-11.5906327,-26.77813567,30.68899159,1
146.1688622,-0.5135059869,0.7902798468,0.03841737628,0.9432425614,1
176.1070751,0.2449084714,5.09816043,-0.9705746484,5.195501427,1
62.34428854,2.596737069,1.702423269,4.618120982,5.564919568,1
172.0651511,0.186768254,-0.8942029953,1.486256677,1.744545868,1
31.96779196,-2.783234305,2.080114224,-0.022445122,3.474733395,1
113.1285181,8.38112936,-13.92151763,-10.24402011,19.20916267,1
210.9222238,5.359049159,1.703562599,10.61379802,12.01142131,1
292.519757,5.992964519,-0.7917252054,25.51643985,26.22272212,1
33.48486421,-0.3087477507,-0.3289479804,-0.003827587366,4.511613877E-1,1
190.4251882,-7.154158983,-0.4102846505,8.471736059,11.09597387,1
303.7421272,-1.745488743,-5.623212329,-11.3296282,12.768231,1
291.8873698,0.6880237395,-3.23635785,-8.487692526,9.109792161,1
24.46940292,-1.242541366,5.403160554,1.777502103,5.82216169,1
34.51608121,-0.6195556216,11.61494192,-3.59575579,1.217457123E1,1
28.8698305,0.4774615569,-0.1958217904,1.160199852,1.269795026E0,1
137.1652968,-2.96039763,-11.11662115,-12.56957004,17.03928727,1
191.9709958,-5.303529262,-9.223324295,-3.517818253,11.20589929,1
83.45177508,0.07475445941,4.088334008,1.184517252,4.257128646,1
166.7494766,-1.078913614,-0.6614955068,2.513827937,2.814420329,1
251.7359045,30.86703745,-8.213329473,3.898500643,32.17811506,1
13.52102663,1.734010074,0.5635616612,1.587177572,2.417338481E0,1
56.04907667,-1.879725904,2.148079335,0.3500141828,2.875782369E0,1
33.48352408,8.558898749,-10.1027736,-2.467527344,13.46883341,1
175.6095521,-1.66091447,-7.28970095,-4.241906449,8.596054161,1
80.08196446,-2.26892418,-0.8511598867,-0.9181678087,2.591432463,1
20.67502217,1.505458348,2.15518721,3.656881998,4.503778713,1
42.53594317,-1.429957053,-1.762356937,-0.4059242356,2.305526758,1
19.999399,0.4765027598,-0.3910255301,0.630666647,8.818708890E-1,1
7.7813255,-0.01698952362,6.412679998,-1.909369095,6.690922488E0,1
74.00817142,-2.251344964,-1.073518973,-10.59377248,10.88342834,1
290.5222168,2.597369153,-0.1524009151,0.05438378334,2.602404687,1
173.1884639,1.239960844,8.170052476,0.6668141341,8.29047052,1
113.6400181,2.781867226,9.021377839,2.04830654,9.660207195,1
101.6620503,-2.232061139,-0.2599748093,-23.80951832,23.9153266,1
116.8892108,-1.195138281,-10.71755804,-13.68795762,17.42568764,1
37.85761363,-4.096272188,5.969425968,0.4344539702,7.252740342E0,1
62.23817037,-0.1196723315,-0.1662588528,-1.195610005,1.213032051E0,1
123.3886352,-3.598434108,-1.662665419,-3.166946722,5.073729975,1
47.91951142,1.997831913,1.596445994,3.253507733,4.138270742E0,1
252.4686668,19.80379436,-17.93589664,29.10400369,39.50860274,1
54.54943079,-4.730316187,-4.775325714,-10.09914949,1.213146518E1,1
221.0101702,0.2542954087,0.06735320002,-5.664222946,5.670328402,1
151.3942443,-2.85586257,0.6660341156,0.888548153,3.064158985,1
197.1002662,-1.271091274,-4.654399154,-9.232289246,10.41701825,1
209.1455425,-6.703805848,-1.819220232,-17.03304561,18.39497807,1
14.75251958,-1.321063917,-5.17794101,-1.280402526,5.495062657E0,1
48.12070658,-12.49680261,-8.694279333,-23.29562993,27.82888683,1
38.61851463,1.841083556,1.194386183,1.663194884,2.753609311E0,1
58.1014855,-1.823598481,-4.746286102,-10.9672704,1.208857986E1,1
0.5259736667,1.870136032,1.6988208,2.90385944,3.849129841E0,1
63.67931346,0.9550898326,-7.326972272,-7.951498758,10.85463273,1
281.45801,8.41682895,-10.39568869,-13.32735048,18.88204501,1
157.7625695,7.682142091,0.7240617375,9.391538165,12.15485753,1
51.996517,1.727692596,0.2982135531,1.949183956,2.621673344E0,1
115.7762851,0.8177627836,1.434964024,-3.626042029,3.984474685,1
28.25911642,-0.8831441563,-3.2869158,-2.070855743,3.983993296E0,1
59.11267038,-2.954379383,-2.936909072,-0.9829505727,4.280185074E0,1
51.53604733,0.1109589569,0.4663458538,-0.7037615204,8.515107886E-1,1
9.542504458,-0.2038350523,2.229632498,14.02473619,14.20232499,1
196.4271005,1.169110716,-1.733445672,3.352684112,3.951220637,1
63.34806746,-2.827648878,-8.988600687,-8.794071423,12.88899657,1
271.6610443,6.083497544,4.84573613,0.5075950366,7.794084535,1
259.414855,-0.07737795889,0.06232781053,2.923492636,2.925180558,1
119.5793071,2.104448289,-3.804730308,0.6469528967,4.39581885,1
24.00412467,0.05316113055,-0.09186502039,-0.6094968027,6.186692495E-1,1
285.392858,15.30237386,-9.946198025,11.47027478,21.55589721,1
86.80153487,3.471737808,0.3289047476,-7.785766447,8.531078531,1
161.8278233,28.88336486,-10.33667392,41.59687697,51.68554699,1
294.8083977,-1.370097937,-4.006482344,-15.21012117,15.78850389,1
50.79077167,-0.2954799798,1.631491281,-5.680053697,5.917100829,1
28.25617187,-19.16392653,-45.43699142,14.53740603,5.141120931E1,1
179.7377917,1.771224971,11.68358589,-0.4050459838,11.82402129,1
66.41962704,-4.637265936,-6.356392946,-5.528606134,9.616311789,1
0.2878202917,-0.09166343763,-1.185717686,1.197088766,1.687409295,1
117.6119225,-0.831996076,-3.278440846,10.6643016,11.18783806,1
106.458973,-1.608430739,-12.27216311,-4.218874851,13.07638871,1
165.6120253,-2.182956661,-3.442369291,-12.34880139,13.0041571,1
6.631785333,-4.892393403,-13.18177352,-5.78449374,15.20378355,1
96.81384971,-0.5751666667,1.044294004,-2.612384511,2.87157091,1
302.8186404,-3.198984202,-4.646204866,-16.01889752,16.98310329,1
28.49774917,-0.5965645158,0.008835873753,-1.54866781,1.659620222,1
52.47714533,-1.723756397,3.351539812,2.370724496,4.452470086E0,1
219.5546943,1.552583983,-11.15344107,-16.06778375,19.62099486,1
69.79231629,-3.257156104,-2.725775178,-15.51735727,16.0881103,1
107.8854134,2.863538503,-5.565023763,28.71926392,29.39328941,1
5.458454625,2.260690861,10.68702154,-5.120617831,1.206415681E1,1
302.0256459,1.888287397,-3.015818417,-11.54993725,12.08560468,1
112.3421435,-1.555328958,-13.18856798,-14.5419727,19.69330708,1
58.56004029,-2.777276869,0.3158489017,0.6348479909,2.866366918,1
12.24948108,0.04072410285,0.7197975093,-0.3381725478,7.963212788E-1,1
18.51706183,0.5967282379,-0.2143051314,-0.2160516948,6.698429771E-1,1
247.9114885,-4.270347891,7.014202952,-0.4191944915,8.222568831,1
55.04790167,0.344444856,7.83606595,1.061577789,7.915144928E0,1
3.496020875,2.484066194,12.99943044,3.540183853,1.369995176E1,1
18.90980167,1.213193606,5.058159628,5.439142565,7.526027464,1
136.6709116,-3.457912359,-5.95916235,0.7711243683,6.932777697,1
3.088221583,0.7672785084,0.7412146908,0.7146221387,1.284056201E0,1
90.34957717,-6.581887309,-2.98204373,23.96422395,25.02993917,1
62.71690188,-5.211109341,11.37966165,-4.762143166,1.339142888E1,1
38.82370679,-0.3203648525,11.567804,0.4064387906,11.57937458,1
57.09029925,-1.32836402,0.1064590859,1.184131263,1.782708993E0,1
64.12097646,-5.498716922,-2.521003055,-8.890842842,10.75353108,1
60.97703413,0.955295143,-0.8326142728,-0.4593305106,1.347894601E0,1
181.4829429,0.8491399661,0.7051806396,0.2564483535,1.13317438,1
1.827562,-4.140165482,-7.016789761,-12.5855727,1.499242972E1,1
55.56073933,1.799032136,-15.88480332,-5.142600439,1.679314838E1,1
193.255822,2.236773264,9.754936185,18.93747557,21.41938177,1
209.6675053,7.668253784,-4.240889618,31.32068549,32.52341618,1
206.5156559,-2.170582198,-0.8851102826,-12.03380721,12.25999034,1
6.782355333,-17.82041179,-12.90202869,-3.527529016,22.28167143,1
32.33104379,-2.296318239,-4.276538338,-0.4376478656,4.873745302E0,1
4.617413167,1.587883624,-0.9224134719,-1.42981555,2.327357627E0,1
119.8704001,7.544980445,-3.223503331,-4.196538488,9.215673547,1
66.79102404,-2.511329421,-0.958113574,-2.089814755,3.404714789,1
18.93843854,1.710608933,1.693848327,10.64775164,10.91649761,1
71.226213,0.9644062744,10.40795966,2.967226886,10.86554827,1
41.42439413,0.7469002309,-0.1445303071,-1.433443163,1.622808758E0,1
120.7910052,0.05167929992,-15.79420656,0.8140831308,15.81525728,1
1.916767125,-2.896075334,1.336030889,-1.672819401,3.601465761E0,1
223.5999167,-9.336335771,-4.327574006,-14.14505903,17.49221991,1
59.12488371,0.1746952155,1.748422145,0.744351722,1.908286641E0,1
34.82401225,-0.08739920944,-0.8612761545,0.460228643,9.804313540E-1,1
4.232710708,-12.89061492,-17.69234374,-6.917548478,22.95733994,1
131.9256375,-3.533577961,-13.37372474,-15.20920433,20.55875928,1
62.36831837,-0.4956705174,-0.2508148536,0.2610349095,6.137887068E-1,1
19.27085367,0.1641466192,-1.919095353,-7.026286808,7.285504608,1
11.54862971,1.408989084,3.627766957,-2.095528654,4.420088650E0,1
115.524086,2.10468861,-9.960126092,-12.34646368,16.00215583,1
110.936869,0.06697101139,-10.76964854,-16.6601371,19.83809424,1
110.7515492,-27.45236408,-54.57956215,8.436722932,61.67446143,1
281.949866,-13.28838346,5.849222417,28.67461224,32.14075178,1
301.0419313,-0.1993767513,-2.527294951,-12.34048899,12.59819985,1
179.005629,-1.002717962,0.4555957478,0.1920366684,1.117984293,1
2.897664833,-5.571332324,-17.02468877,-2.615038854,18.1029887,1
19.85867233,1.206133093,-2.901300114,-3.404558855,4.632852295E0,1
11.53593717,0.08842934266,-4.396789836,2.162504416,4.900612815E0,1
38.39825362,0.7433359876,-0.1042184329,3.32482096,3.408495898E0,1
107.3032284,1.497627172,-8.954233092,-16.99165084,19.26492605,1
46.31995133,1.025926146,-4.137138963,-1.499761698,4.518598058E0,1
62.56671488,0.9812749068,4.440710027,-0.4499748194,4.570041939E0,1
174.2616304,1.577305133,13.79307652,-1.030644849,13.92117381,1
59.17274138,0.1161424405,-11.36561079,-1.309981105,1.144144433E1,1
45.4945485,-2.843344851,-7.468258544,-3.347639135,8.664074295,1
295.5110491,1.184627399,-3.39755623,-5.73036431,6.766373145,1
123.544187,-6.587145125,-16.42281031,-18.45382195,25.56643745,1
95.87802358,0.7068722391,10.63639167,5.498803461,11.99455441,1
157.8729835,0.1897167125,-12.3083948,-6.806243219,14.06618362,1
301.9854939,-0.01000012748,-4.248741844,-14.63298695,15.23732964,1
39.85815187,-0.7219653645,0.2854686695,-0.5657292241,0.9606122547,1
5.067970625,-0.3676803754,-0.3667952532,0.4839524049,7.098855868E-1,1
18.82743496,-1.245425359,1.892719148,-0.06184483051,2.266560143E0,1
38.130593,0.5912590447,-0.2988628864,-1.079483133,1.266566270E0,1
279.8519486,3.479497941,-12.31713404,-20.81323896,24.43378016,1
55.91005983,-3.76771217,-4.891857213,-7.667874885,9.844908696,1
304.1034922,-2.246610474,-4.794413949,-10.09866768,11.40248888,1
47.96190225,-0.4097784278,-0.4361964405,-2.38151831,2.455568194E0,1
170.6609752,-1.335348665,-10.90704758,-7.634059852,13.38004906,1
257.6080427,12.72873125,-6.672647206,3.341115396,14.75492704,1
175.1177069,2.216878698,8.494128556,15.99820656,18.24848991,1
34.82618942,0.09207888231,-0.6164085039,2.318323942,2.400638221,1
58.42186113,3.712194319,-0.6224267507,-1.267435448,3.971673997E0,1
56.92010025,-1.760150783,-3.592119407,3.087985922,5.053425538E0,1
49.76697117,5.004176964,1.649515615,-1.764937021,5.556769883,1
230.5059144,-0.3000805691,-17.90029645,-20.40832161,27.14793275,1
16.65979779,-3.638807085,2.244209022,5.993752724,7.362232192,1
137.9446593,2.166878133,10.49197012,1.77748807,10.8598463,1
57.47595733,-1.156566246,0.3825144692,-6.242674541,6.360420445,1
19.648985,9.137224045,4.739940119,9.168905429,1.378494550E1,1
234.4407329,-3.657353576,-1.062465177,-6.221481893,7.294649024,1
286.376571,3.723435591,-1.660649299,-8.058032688,9.030704264,1
37.41977125,6.755605162,5.812758595,9.154532973,1.277622157E1,1
177.2055438,0.4369108971,-14.15297265,-7.000740908,15.79581904,1
91.16425875,5.898374112,-14.43302855,4.670679265,16.27631331,1
271.0788471,21.24590251,-3.051970582,33.47121656,39.76210804,1
198.0036612,3.419138303,-4.865969543,17.97344512,18.9317959,1
61.04711512,-0.375098007,0.7803261316,-0.1045200761,8.720847624E-1,1
48.04040358,-1.29335557,-1.909401547,-6.134469477,6.553647737,1
68.75842621,21.27574904,-23.85003017,7.336430728,32.79183819,1
4.530855375,-2.888896708,-7.062285191,-10.1933458,1.273286672E1,1
65.39218746,-0.226838492,0.4293595836,0.02926882267,4.864792055E-1,1
58.913568,1.319646406,-1.942423405,-5.970383157,6.415602105,1
123.0275742,4.896614216,-0.04967619002,-10.34469045,11.44517012,1
151.4143033,-2.566768042,-0.01122197628,0.3591824707,2.591801722,1
11.29761758,-0.8423725449,-1.550922789,-5.375472234,5.657795926,1
57.5308165,-0.4268846764,0.2475676024,-0.4706672385,6.819442017E-1,1
29.33746825,0.373420587,0.7785626113,2.198960052,2.362419942E0,1
149.4815015,-1.26464618,-6.870122881,-20.1106539,21.28934754,1
30.25144475,8.846735541,4.217362761,9.633038696,1.374213640E1,1
20.19646454,5.754159554,-0.949169746,0.08218495488,5.832497728E0,1
15.28050563,-1.21232968,4.394967844,-3.079667673,5.501803212E0,1
157.3409875,4.383851117,-3.564901788,-0.2289886594,5.65500762,1
143.6496232,-11.92066242,8.106073412,4.44379151,15.08502243,1
94.58424337,-0.4749210879,-2.316472714,-4.645056181,5.21230686,1
54.26911117,2.878105379,2.751224015,7.687782315,8.657639463E0,1
143.0095642,2.665648845,-0.01063900888,2.135476539,3.415561008,1
178.9521015,-2.930760725,-5.287621912,2.941611403,6.723197272,1
239.529903,0.487511605,-2.86621565,-14.38554565,14.67640226,1
91.17428775,-0.7591448852,-9.38572077,-0.9708670092,9.466289562,1
36.72578167,-1.99766059,5.969006723,1.121614076,6.393567644,1
189.0653378,6.04888729,7.461229606,1.094929869,9.667360348,1
166.7362444,-0.7116825972,-1.324409256,-2.00766196,2.508238135,1
281.688881,2.456957332,-1.738767807,-9.77746083,10.23028314,1
41.27422113,2.622256365,0.2384231418,2.383460171,3.551613214E0,1
63.269341,-0.2229144256,-0.6012232849,1.133381013,1.302195377E0,1
39.11149438,-1.605979733,-5.817976651,0.3421954322,6.045256068E0,1
291.1244908,-5.403792053,-7.268133495,-15.37143767,17.84118351,1
205.5620704,-0.2098226194,-6.583806365,-17.29618552,18.50806758,1
96.30928283,1.343721878,-3.548608521,-0.1323452944,3.796804735,1
38.79872862,-0.7546833135,-10.60739415,0.4986414877,1.064589127E1,1
75.94994346,-1.699254517,2.15908438,1.535627057,3.147580298,1
57.20265058,2.864031131,12.29049998,1.798491268,1.274729912E1,1
128.577086,3.026456841,7.465644838,-3.621744325,8.832458651,1
279.9021376,-2.744974511,-10.91134178,-18.51363429,21.66441597,1
2.117016125,-0.7729185864,-7.943627821,0.3719484043,7.989804235E0,1
172.0150031,-2.952419397,-0.8970073199,2.842288844,4.195236382,1
0.18461625,2.306632435,-1.668093974,-2.813005988,4.002011167E0,1
306.3118339,0.2936109173,-0.1759408186,-6.521255191,6.53023214,1
248.6542878,-13.70190908,1.655752694,-14.04632528,19.69220869,1
224.0215037,-0.9339710784,-13.24323009,-15.9478059,20.75061344,1
171.6739971,6.359680835,2.672779816,9.716207737,11.9161229,1
249.3468978,-5.80601851,5.71156902,-13.34796542,15.63649745,1
39.62231642,-1.582982926,-1.154852281,-3.111001732,3.676662959E0,1
94.87509237,-0.6048937283,0.5084563315,0.1818353967,0.8108565688,1
180.2971526,-2.176250782,-7.764673786,-4.433027955,9.202062992,1
188.2629678,-2.077969904,-11.09568812,4.403258026,12.11696888,1
108.0159034,5.321443377,-9.860622854,-9.330951655,14.5813683,1
188.5079864,-2.956300778,-10.53529097,-8.873790023,14.08815884,1
3.59972275,-0.1109048702,0.6583697315,-2.963314514,3.037595019E0,1
28.66824629,-0.9855970956,-0.353687696,-1.309503241,1.67669179,1
303.9729992,-1.179234366,-1.478425501,-8.061531077,8.280375532,1
48.65037442,1.192593573,0.2707126361,0.8661024463,1.498565384E0,1
164.3323506,0.2107355159,9.764758923,-1.478483242,9.878301422,1
136.6132258,-1.95600064,6.516331251,5.932014313,9.026478011,1
57.3125775,-6.629677772,-4.204322886,-9.137455595,1.204666149E1,1
101.6018243,0.8228258146,-1.416323247,-13.31971635,13.4200543,1
119.8302491,-4.466555013,-8.473787262,-11.46010882,14.93617348,1
194.691214,-2.978144222,-7.379196094,-10.14634939,12.89458351,1
72.62296267,-1.812603231,0.6104319187,-7.370469124,7.614589464,1
6.433452083,0.4137524514,-2.932804619,-6.778549637,7.397382591,1
246.877592,14.24690232,-5.21932117,-26.46223634,30.50353244,1
31.71276958,-0.06831901386,1.665982836,-2.580216054,3.072080921E0,1
112.8476951,1.928438035,4.664768314,1.687342569,5.322223372,1
60.18616354,-12.4735342,6.822649922,11.53247513,18.30670888,1
43.12766425,2.206696503,5.395253364,6.224586765,8.527822038,1
120.8010342,1.129933641,-5.987024918,-0.6203041383,6.124213796,1
300.8411733,5.06143173,-4.05206636,27.3344655,28.09288766,1
202.5306753,-4.230136296,3.064758443,-0.1569889694,5.226035107,1
37.559934,-0.192699962,-0.8614112252,-1.26664432,1.543875127E0,1
99.38349758,1.876827147,-1.001424266,3.72456235,4.289253478,1
61.51766212,0.0715735741,1.735620836,-0.6907747813,1.869404253E0,1
63.71021021,0.05840652153,-1.613040977,0.1842143364,1.624576079E0,1
183.5490431,0.3396220726,-1.408665002,1.145574796,1.847165898,1
188.5380994,-2.657217452,-9.918711433,-9.54035565,14.01641991,1
42.04494083,0.5527871431,-0.02246032476,-0.2933138605,6.261877614E-1,1
114.3496785,0.08627522841,-10.30813483,-9.358709557,13.92302164,1
21.96119033,1.674387332,0.2324934804,-0.6969506836,1.828487465E0,1
11.80894508,-1.192106207,-0.2226374137,-0.1604511058,1.223286224E0,1
15.37390642,-1.847067597,-0.2281174242,0.712231797,1.992729384E0,1
88.30188608,2.043501591,-0.136512404,-3.764043919,4.285155892,1
97.40607267,-0.2462991221,-0.01100270569,0.5845397168,0.6344060195,1
58.81452271,-0.1063656036,11.35576291,-5.045436087,1.242662828E1,1
94.52525604,1.651624414,-1.633277605,3.563096752,4.253365421,1
111.6642252,3.156507688,10.77264232,0.1907373806,11.22718772,1
29.97023371,-0.5404838705,3.278155501,-0.06125908569,3.322977427,1
222.3351577,1.926780057,-6.610847983,-5.626855729,8.892541698,1
30.37118321,-0.3918530573,-0.2344885504,0.03669712543,4.581270324E-1,1
24.54170613,0.9623122403,0.01943439066,1.294960631,1.613488636E0,1
151.7753663,1.002556579,-6.001372815,-2.265477977,6.492610094,1
124.6483302,-3.010323204,2.679875997,40.97651078,41.17424216,1
179.0223655,-2.803087941,-8.891846225,-2.511897771,9.655664747,1
18.83802379,-0.4411433311,-0.2143068856,-0.4348784781,6.554801068E-1,1
15.49076162,-5.707081282,-14.80401801,1.003292159,1.589768289E1,1
118.1131428,1.637525754,-1.328634161,0.01806438804,2.108811431,1
99.96568358,-0.7197456884,-4.314594064,5.229752018,6.817922115,1
18.56770379,-0.4321915363,-0.05440658748,-0.6176256019,7.557850124E-1,1
28.20611188,0.1140319611,1.762127434,-6.129880582,6.379148245E0,1
7.834081708,-7.347792453,-2.790393636,0.500173312,7.875691964E0,1
191.6698638,-2.84821412,-1.332013852,5.478560985,6.316740856,1
5.340273917,-3.153294643,1.891725706,0.7938560039,3.761927778,1
283.415396,1.579097305,-4.588908877,-10.92941201,11.95841461,1
216.322535,-6.934030609,2.829032037,0.01989339709,7.488965115,1
264.8453348,3.93075944,-1.14169473,-7.057912059,8.158949642,1
111.5993544,-5.079754565,-1.07482758,35.81206281,36.18650305,1
114.7511855,-1.974294531,-16.18862231,-16.40915823,23.13503414,1
40.56081412,4.141952975,3.801180171,0.9871982825,5.707828448E0,1
61.09281142,0.2237952355,0.08950742304,-2.365528514,2.37777649,1
15.95117733,-0.2280270848,0.2620248431,-1.667017794,1.702821686,1
1.940382667,1.352085297,-1.027613068,0.6662908083,1.824298963,1
92.29756671,-4.021612015,-16.27840045,-0.06029984996,16.76792535,1
70.15309458,-2.385734299,-3.041924481,-0.2607174057,3.874662083,1
243.8963575,-8.997684336,-13.3146246,-5.218875613,16.89598219,1
29.15975071,-1.043954062,-4.294545423,0.9918487193,4.529539089E0,1
200.8844877,28.86031981,3.548330486,30.58714527,42.20286915,1
37.52963308,-0.8389000297,0.5918025434,2.338837144,2.554240141E0,1
197.2608692,2.974345286,-1.081097476,26.43985554,26.62858356,1
142.6358192,-5.985451432,-3.758556892,1.448385723,7.214582452,1
144.0912792,-11.19104217,14.0807572,33.49857217,38.02185537,1
30.40161975,1.526222103,0.4221841729,-1.813559543,2.407611181E0,1
221.5823238,0.02780058682,1.40928393,3.7438605,4.000418167,1
17.1427685,-0.9223181623,6.367672225,7.809351191,1.011849230E1,1
96.56290771,0.869899482,-1.11706845,1.839636371,2.321385148,1
39.05851708,-0.3603152226,-0.5897501707,0.7125072008,0.9926222014,1
18.90832454,3.579810433,0.8732063017,17.80208779,18.17943513,1
269.4928645,-2.364893214,0.1401562974,2.750202214,3.629872714,1
101.1133273,1.821749445,2.089829957,3.541822827,4.497851624,1
218.7717489,-3.765173602,-12.45371097,-11.21033798,17.17390831,1
41.62462512,-0.4380955065,-0.1061643863,-0.9751968724,1.074340491E0,1
304.7760329,-2.491053032,-3.995577287,39.36027489,39.6409034,1
42.63623417,-1.780569114,-1.664288313,-5.232722989,5.772492688,1
140.1912701,1.306133491,10.18214253,0.7268920822,10.29127705,1
30.96493933,-0.2306170724,0.1654855585,-1.155644286,1.189993034,1
27.78856542,-0.4544268894,0.5500613174,-0.3138574862,7.794727528E-1,1
111.3785264,-1.299507865,-10.03782389,-21.60578226,23.85909588,1
132.598926,-0.7632689264,-5.525146337,0.7997488278,5.63466234,1
143.2402436,-4.06295066,1.71070702,-0.8734725693,4.494111803,1
240.3429668,24.19959777,-17.12168239,35.61129983,46.33505385,1
15.17416304,12.99130748,0.8857401739,-12.77795077,18.24375596,1
28.6495725,-1.312234037,-1.142212355,-1.821696528,2.518965159E0,1
112.7536875,8.622573758,-12.00156449,-0.8404045182,14.8017772,1
265.1263948,-1.527010746,-1.192582609,-11.44745193,11.61026145,1
53.54113567,2.333835436,3.553296819,12.81820885,13.50478375,1
4.487251167,-8.402105076,-23.37078068,-2.072957817,2.492159532E1,1
263.3798075,1.438702441,0.6288525483,-2.252626966,2.745842037,1
216.734083,15.78747992,-0.4892397496,12.34288284,20.04571362,1
143.2380792,-1.156071791,-10.23346471,-4.957819068,11.42979755,1
64.13562046,0.06147923335,0.2487113178,0.1256095943,0.2853327635,1
259.987012,-3.430972483,5.830503141,-3.603268293,7.664847125,1
79.07904525,-3.543839532,-28.81799533,-40.98526289,50.22775555,1
108.7657295,1.598136131,9.707049828,4.797951515,10.94537319,1
193.034993,-2.780799232,-9.099608322,-10.84245339,14.42548133,1
261.0209114,-0.7718172634,1.953382841,2.395369779,3.185781347,1
190.3391035,0.3794071126,5.984932784,2.478682078,6.489008786,1
39.51986108,-0.4355109275,-0.2224807084,0.5509182268,0.7366670389,1
28.96643433,0.585825081,-0.8693821496,3.186477007,3.35449729,1
106.2793842,9.749943833,-14.00962231,-10.04452246,19.8046296,1
231.0680314,12.60844584,-12.82742172,1.6170241,18.05908141,1
191.1278272,1.532833696,-3.172757978,7.794240232,8.553721594,1
28.91946671,0.2357139806,0.7436798769,-0.8834487232,1.178601920E0,1
281.718995,3.901466644,-3.659906178,-14.81498505,15.75119479,1
178.0286347,-0.8603567529,-9.350787749,-7.643700156,12.10799725,1
190.7363572,-11.78964503,-6.161126933,-14.77348151,19.87991375,1
15.95397221,0.1907385135,-0.04330681801,0.08956874572,2.151260589E-1,1
99.93989487,2.641898624,-2.093364599,-1.798335732,3.820446975,1
96.02087267,-1.422902241,-1.103303812,2.352331933,2.962329424,1
30.35315771,-0.8984112364,-1.853960879,-2.034548042,2.895461868,1
167.5418116,-0.2179791563,-2.831225912,7.446705707,7.969741587,1
49.47134213,-1.459975781,7.217041109,4.496015916,8.627361751E0,1
222.8872347,-6.49386274,-0.9970221895,8.172795405,10.48612852,1
88.13124558,1.406959662,0.1194839141,-2.672001552,3.022152244,1
207.8205617,-4.827861192,0.8939631133,-16.24158872,16.96751655,1
93.20028121,1.050110376,0.9871982825,-0.6815298218,1.594294561,1
17.6033275,-0.7283157331,0.6831740588,1.582440743,1.871173243E0,1
45.49078904,-0.2681305788,-0.747673379,-15.63484654,15.65500993,1
95.07732904,2.718833656,0.5711048618,1.268716573,3.054154377,1
78.99881225,1.69722451,8.887198273,2.278465958,9.330287847,1
25.14243038,3.643713191,9.300791132,1.225314445,1.006393348E1,1
26.56414004,0.4343137832,11.47103024,3.216759152,1.192143879E1,1
215.8909102,9.057296115,-12.85918029,-7.304469847,17.34209937,1
35.15715442,-2.144204093,1.247983223,-6.982705756,7.410347697,1
211.7152055,1.183085854,-1.425872773,17.40354742,17.50189327,1
252.9906348,-13.71269134,6.772939818,1.050585608,15.33017768,1
31.74318337,2.044850543,3.366771224,-4.076889253,5.669002399E0,1
113.8807241,-1.857790075,3.325802708,-4.850347245,6.167512951,1
229.6225882,26.56065434,6.680330447,6.464026152,28.14034129,1
162.5003472,-0.7188955763,-8.708894448,-12.45909041,15.21810064,1
168.0132016,-3.243940519,-7.76341488,1.876839865,8.620689565,1
47.86945242,3.245701993,-2.381761554,1.908447574,4.455282446E0,1
64.65917488,-0.6829398778,0.4840219867,0.09983769894,8.430016171E-1,1
176.3021518,2.898085607,2.157330215,30.65852808,30.87067083,1
196.7881685,-0.3339432567,0.4860749441,-0.1915477681,0.6200624948,1
224.5936579,-0.4178434923,-3.67076972,-11.87688548,12.43822947,1
244.3480591,-2.119521972,-2.84539547,-8.621295556,9.322842155,1
101.6649403,8.041462263,-11.46528828,1.674585845,14.10397775,1
112.8978421,-2.918575128,-5.738906507,-2.937617755,7.076915059,1
184.623397,0.03767945766,-6.737182925,-8.317483002,10.70381133,1
186.096568,1.935534946,9.97636381,0.6233003247,10.18148485,1
295.9627541,0.2087951905,-3.577365713,-7.207921792,8.049551381,1
35.97955079,0.6443598028,0.3593391761,-2.705917742,2.804695175,1
140.9695684,10.23482945,8.941328287,30.37933522,33.28067148,1
290.8032778,-0.3360134634,-3.196352955,-13.53878229,13.91503514,1
211.6148275,7.240848632,-8.354382441,-1.852244722,11.20965679,1
103.589286,3.598049068,2.058541799,-0.1625648743,4.148491144,1
43.93480313,4.397838534,11.40400946,1.967523163,1.237996619E1,1
249.0457628,10.07951922,-4.067668486,-1.680710219,10.99851906,1
175.9809461,-1.838613108,-8.081361324,-3.429212471,8.969303049,1
47.27111029,-3.041797011,-3.247521939,-7.041611191,8.329658815E0,1
167.9508022,-6.332056249,-10.99948271,-0.9044993573,12.72405892,1
223.5698037,-6.80611692,-3.133260913,-13.57844629,15.50853813,1
59.33512771,1.564677486,0.3440308732,-0.5820832285,1.704521564E0,1
48.91298475,-0.8213260768,-2.26899917,3.13215345,3.953899214E0,1
152.643362,1.268289434,-8.411733102,-21.45183443,23.07698014,1
7.383527958,-1.088908333,-0.5587084723,-2.277653049,2.585648841E0,1
16.03141863,5.621383905,-12.18856313,-1.16579096,1.347293942E1,1
216.653781,3.139589354,-11.42991029,-17.12709574,20.82876086,1
43.83704308,-3.433266638,-1.894417765,2.155304886,4.474536582E0,1
55.29303867,-0.006952814497,-0.1643494445,-0.8507979441,0.866554224,1
4.537313167,-2.193180664,-3.24494741,-4.344937605,5.849633143E0,1
140.9434841,-0.4209828624,-0.9578797585,-0.3084090507,1.090814533,1
65.91077433,0.8206445839,10.15964011,-0.6091968405,10.21091893,1
31.21494396,5.20705839,-16.92588252,2.863436469,17.93873532,1
53.73636117,-0.5647224797,8.169626214,0.9932635993,8.249137927E0,1
26.31640054,-2.407172384,3.411179073,-0.5596029501,4.21233629,1
245.8537342,-20.31306813,-2.611035558,0.7757851839,20.49487951,1
83.10075308,1.431189792,9.485442109,1.726733068,9.746975085,1
82.15880917,-3.446078764,-4.313250374,-16.62436851,17.51711209,1
140.9033661,0.1551267044,-1.69095571,0.2507742155,1.716474064,1
12.97769892,-5.303003597,-10.55186666,0.5750321442,1.182346815E1,1
201.2558837,-6.385819643,-3.696251301,-20.56806988,21.85146368,1
4.614152708,-6.422072965,-12.5785689,-0.9151115421,14.15276814,1
77.43104029,8.574811946,-4.18386611,22.24485487,24.20466285,1
56.74726738,2.387887536,2.48178958,-6.735097223,7.564576724,1
10.6248215,1.117344439,10.9901564,4.912227743,1.208974680E1,1
12.02921308,-0.2132412305,-0.133345753,-0.3564567912,4.362503366E-1,1
130.0586319,-4.829801883,-11.221857,-0.4904843295,12.22692257,1
30.56377033,-1.556817513,-0.7705332148,-1.587926601,2.353489557,1
238.1647603,-0.3654539019,4.025975207,-5.706436919,6.993243542,1
250.0997369,-9.532604581,-0.3568444616,-16.14742516,18.75465882,1
171.3937265,-4.321557513,-13.46531436,-16.23119354,21.52770759,1
95.83790658,-4.763888268,9.374498793,2.541054912,10.81817078,1
17.3930725,2.782929665,-4.770363182,3.798121492,6.702744906E0,1
47.49136229,1.085197032,0.185823344,4.547363825,4.678749905E0,1
176.0110591,-1.581095883,-8.6604222,-4.786491557,10.02064261,1
121.6771807,-7.328363324,-12.76115874,-19.38857422,24.34068388,1
21.45798854,2.355715717,-1.451810437,0.6968758392,2.853556731E0,1
132.9695547,-2.195615152,-8.766433974,-12.49248035,15.41859772,1
54.94201804,-0.2573973384,0.6057311958,-1.50762211,1.645019179,1
61.41077442,0.64201083,-2.710467168,14.22043548,14.49067271,1
96.77063083,2.170047763,1.860322065,2.70409458,3.934721461,1
10.52536746,0.7507305226,3.685453248,14.91148165,15.378506,1
95.91045767,1.091652577,-1.176400148,-1.589952661,2.259108701,1
252.0470775,10.36852019,-12.78725486,-5.667612576,17.41097155,1
136.5529998,-11.20232496,6.975311952,34.52326397,36.95947533,1
193.7190935,-0.01446308792,0.428160612,-0.9331290793,1.026771917,1
148.1747666,-0.9588463032,-10.12872003,-2.027242531,10.37400925,1
39.14176162,-3.736565807,-4.189557789,-5.506704803,7.863721529E0,1
34.8164365,0.8983510101,-0.2661939079,0.5741053605,1.098858817E0,1
48.78052742,0.871124766,-1.033463792,-0.678031725,1.512161627E0,1
281.1869863,-0.9424667904,5.339358076,6.741489399,8.651281271,1
8.492200125,-2.610159645,-11.67694111,8.206344389,1.450889298E1,1
100.5717429,0.630923559,-3.22659183,8.202955343,8.837275357,1
160.5211216,5.031659462,-7.301317613,4.091231888,9.765501226,1
43.76427867,0.2932288018,-0.3606492448,0.2139870429,0.5117044679,1
151.7452773,3.779701009,-5.201592997,-1.023013355,6.510703937,1
29.37751625,4.703720419,7.295018992,1.669894039,8.839164778E0,1
156.8089917,5.324680395,-0.7104426952,40.59783574,40.9516937,1
17.5432545,-2.506557509,-3.680091351,2.715331174,5.215258985E0,1
152.4373129,-0.2478146838,9.898385342,0.9782333314,9.949692707,1
291.8974078,0.0169287948,-3.589480851,-9.616328523,10.26442564,1
62.13805637,1.229026258,-0.1734743169,-1.332095713,1.820735530E0,1
63.01724288,0.6449617736,0.7045836389,1.202049544,1.535362140E0,1
22.50026717,0.4412823486,-0.2078091672,-2.343983864,2.394196131,1
22.27208412,-0.09080755144,-0.4755312449,-2.005990825,2.063583090E0,1
20.19354346,1.646205799,-0.7456319699,-2.83968274,3.365970682,1
56.54188096,0.1952857469,0.7279268932,-2.276911622,2.398403765E0,1
116.8691348,-0.4169763868,-9.19614059,-13.28035757,16.15892225,1
35.90772271,-0.000952949971,1.401822006,0.9953506167,1.719252365E0,1
16.55293142,-0.8269235433,-0.188841092,5.414731609,5.480764719,1
83.48186308,-0.4974538451,6.135796795,-1.018775732,6.239660778,1
184.3012651,-0.07993173033,0.4456081188,-0.5357229213,0.7013948428,1
221.3815688,-4.897269689,-3.139194375,-9.124329765,10.82086805,1
80.25246046,2.300364512,0.7436506408,-2.8082025,3.705495169,1
171.0524442,-9.742979799,10.2926935,20.58890936,24.99536724,1
66.27182233,0.6150545812,6.511961626,4.571225435,7.97997734,1
294.3868053,-1.220633749,-2.714317852,-11.37041136,11.75345577,1
67.18447187,1.283411211,10.27209142,3.698496047,10.99281035,1
24.37905992,-7.174487413,-13.19475434,1.034016938,15.05470035,1
71.02696067,0.9378936099,-4.210044094,-14.39081516,15.02330445,1
46.698049,-1.324283394,-0.4706312782,-3.339922564,3.623576002,1
230.9074264,-40.83570047,-22.86356981,-17.47749365,49.95758242,1
91.10240417,-0.9396805921,1.088451008,-4.422065595,4.649988101,1
72.59017587,-1.699227473,-6.975518358,6.892845746,9.952715853,1
107.4537934,8.237749785,-1.03823892,19.39015297,21.09304373,1
106.709707,1.964957551,10.02942729,4.345975778,11.10576316,1
158.5854194,-0.995055844,9.768346775,-0.2039777061,9.821015311,1
27.90240658,-1.04819439,0.7191823822,-5.504385213,5.649264673,1
104.432452,2.867007363,-7.399609308,-15.94635345,17.8117977,1
158.0938125,6.0270456,-12.8799917,-6.142955541,15.49049282,1
141.4048419,-0.1574386934,-0.1421990222,1.053800992,1.074943736,1
12.64457021,-0.6553648473,-5.399287359,-17.94058845,18.74690697,1
26.50706429,-12.52488796,-4.473740364,-9.10957607,1.612053186E1,1
5.270923958,-0.9019786227,-9.167178746,-2.243530745,9.480725806E0,1
12.74182454,0.4037708522,1.679908858,16.23793772,16.32959724,1
28.15899942,1.795188176,0.7439962113,3.244146341,3.781628807E0,1
170.8918422,-1.094699196,-6.825171241,-9.972959561,12.13430061,1
173.1402829,-3.160732301,-1.054383375,-0.990708366,3.476126587,1
62.16624588,-0.8745036527,-6.827456918,-0.6690229198,6.915671787E0,1
90.81323483,-1.412219817,12.05150907,-7.167150911,14.09259692,1
146.8917852,2.691534761,-9.369737406,-3.58469052,10.38683516,1
166.9169224,-1.994002571,-0.7520263387,-4.793112944,5.245523955,1
59.20441438,1.408194447,-4.353724216,-8.507557272,9.660044352,1
212.2070545,-0.7249000821,-0.6330810354,-13.47180477,13.50613918,1
14.37205858,0.3469275107,1.106231806,0.2393394005,1.183803554E0,1
13.918848,1.273676328,1.511143304,0.6043813661,2.066659698E0,1
81.88721908,3.783782365,2.783192205,2.256604242,5.211087271,1
11.93948721,-1.817386838,-0.8629285777,-7.653296022,7.913310347,1
96.06102267,-2.070338849,0.8707881126,-1.327582247,2.609032294,1
133.2305337,-4.122202543,4.23901237,6.672846596,8.915641388,1
166.9701276,-0.03738709688,-0.4607325268,0.85896782,0.9754475752,1
63.67016321,-0.009820691049,-1.985208651,-0.4031381835,2.025751769E0,1
231.2487114,-20.00312828,-25.57500089,-14.28710778,35.47290882,1
197.1303792,-2.394599555,-4.890524633,-8.323665263,9.946594474,1
30.21274871,0.1539754607,-1.707112736,-5.350946673,5.618769672,1
5.607910667,28.09830599,-2.316310161,-1.406257703,28.22866722,1
106.3797612,-2.059538164,-19.93286346,-33.99983526,39.46580217,1
37.630015,-4.561227574,-5.733197286,0.01219787657,7.326288070E0,1
118.2334958,-3.830831401,-0.7185731024,2.450975046,4.604225799,1
181.2908832,-2.949571803,13.67894355,14.34326443,20.03853051,1
54.78582492,6.402245057,3.026518529,18.50849693,19.81698803,1
97.63315108,-2.334216821,0.207554521,1.888765261,3.009830769,1
186.4602953,0.4858423711,-8.069366931,-11.24052248,13.84557948,1
34.27458267,-0.03400250919,0.02012523919,0.09309702873,0.1011348241,1
291.8672948,1.70671074,-2.514069719,-6.13577633,6.846981763,1
17.04528913,5.453712657,10.29857463,3.444435697,1.215186234E1,1
47.32881442,-1.709520766,-6.695403399,0.05622507155,6.910430463E0,1
183.6593691,2.246849332,-0.7282180846,0.4458712435,2.403629478,1
113.3491651,4.465793998,9.895482785,-8.75500793,13.94682973,1
56.15142696,-1.858258437,2.021152655,1.190313013,2.992495203E0,1
97.94405975,-4.210949828,9.661719289,0.08120503463,10.53980609,1
63.46993021,-0.05597510308,1.288366141,0.4580158373,1.368502478E0,1
227.3640861,-7.212989573,-3.075397452,-20.58735868,22.03008455,1
287.0491088,6.385331401,-10.39876433,18.59118708,22.23823271,1
98.86675675,-1.042279639,1.391440274,-1.765234644,2.477600902,1
234.5210359,0.204011693,0.2514323196,11.71757225,11.72204497,1
154.9045777,-0.08771661275,-4.407813592,1.053204576,4.532742519,1
59.24453138,1.83426351,-4.46706986,-7.47972084,8.903115163,1
62.831837,2.368836723,-3.097735569,1.840197119,4.312038788,1
5.778556667,-4.438230223,-3.581269021,-4.00017086,6.9659703,1
62.27821538,-0.2355226305,-0.05408879131,0.6028508574,6.494810721E-1,1
120.2518312,-8.797680325,-8.897111642,-18.10170263,22.00521331,1
21.11757754,1.943713593,10.22564582,-4.361116558,1.128544162E1,1
29.25753571,-2.483047024,14.08701839,2.935920893,14.60237108,1
40.0602225,1.333109035,1.858780155,-2.332375971,3.266836548E0,1
201.3462238,25.24816492,-3.323355063,64.31518089,69.17338371,1
62.518488,0.05648322612,0.3171032757,-0.9291073644,9.833541259E-1,1
31.91338137,0.811306215,0.4348726308,-2.656474856,2.811439247E0,1
103.930568,6.012604732,-1.034782631,2.953835008,6.778446135,1
200.4127147,-2.825023186,-4.835035141,-12.74098701,13.91729395,1
59.80348038,0.6655546439,3.166066716,0.1087570782,3.237092760E0,1
157.2113722,-0.7651708795,1.851581063,2.104738019,2.905815038,1
280.5244863,0.5167695373,-2.326650378,-3.282065535,4.05614434,1
33.74551229,3.256575183,0.7314872628,4.242097068,5.397753521E0,1
296.8862419,-3.667425113,-4.694717753,-13.62619933,14.87157321,1
5.457341667,-11.16474724,-10.85038105,0.3674833243,15.57296998,1
22.94362096,4.605873112,11.51688645,3.239596038,12.81981759,1
67.93533096,12.66592981,-9.121806691,4.476585619,16.23800955,1
116.9697869,10.27909989,-20.18879141,-17.23549961,28.46593824,1
49.87409087,2.454214988,2.380972765,6.833097727,7.640904859E0,1
9.271716208,-0.7492961276,-0.5054996869,1.506401796,1.756764353,1
196.6084182,-0.08157004707,0.5490482873,-2.142779419,2.213506569,1
300.9415523,3.154454438,0.8300850597,-5.098130025,6.052318048,1
40.05873512,-0.4036955693,0.4644633427,0.5605158466,0.8323907278,1
159.1879177,5.558247424,-3.73851059,-1.228689458,6.81030496,1
118.3647485,-2.823520744,-6.652833331,-14.61391801,16.30334507,1
62.72572454,-4.535076194,-0.7061495233,7.21522204,8.55131524,1
2.636679833,-23.87827456,-11.87908988,-1.849324037,26.73396289,1
193.5971041,-0.3875993541,-6.152360787,-10.18942699,11.90908053,1
41.08171592,1.531802393,1.081719693,9.411437409,9.596441537,1
129.5467109,-4.131069553,-11.69326888,-10.55253792,16.28356009,1
1.295996375,0.5242011291,1.881408879,-0.009807571359,1.953095590E0,1
61.43779233,-0.2103945136,-0.1151613143,-1.366600133,1.387488343,1
178.8918755,-4.578433298,1.959695788,4.153118818,6.484663057,1
30.30301171,-0.6937547417,-2.746780424,-3.99948732,4.901224047,1
49.98423513,0.4155797428,0.6114439255,-0.6683250546,9.966085366E-1,1
44.04533867,-0.1418899968,0.007421870828,-0.1075706416,0.1782113866,1
3.398606583,0.2154328766,1.714551564,1.555315948,2.324888403E0,1
285.673919,-1.283610455,-5.735213991,-19.31007184,20.18462806,1
62.24818137,-0.4818588093,0.1450702974,-1.234437856,1.333067937E0,1
47.68907958,-4.711253971,-2.54336807,-10.05806579,11.39426709,1
114.6508085,-3.41344253,-20.51563673,-29.11978416,35.78414132,1
67.81630687,6.210818911,-1.729797302,-16.60861962,17.81608026,1
20.43675554,-0.8898453578,-0.05799677789,0.7673242629,1.176424631E0,1
25.41275538,2.782373595,-3.469727243,-7.038614493,8.326025699E0,1
67.18249796,7.419434878,-0.1836204055,5.77836118,9.405912411,1
154.420027,6.764715709,-4.244766907,2.360267774,8.327682072,1
200.0915072,-2.99731198,0.5145982468,30.25538594,30.40784552,1
57.4607345,-0.9290295234,0.9765738916,0.3992331205,1.405766519E0,1
113.5296951,2.417565956,10.8301029,2.724332378,11.42618663,1
20.40933233,-0.3655714309,0.1737359798,0.6462763739,7.625613504E-1,1
153.7010339,-0.3688216057,0.25809376,0.09831026003,0.4607674826,1
138.9676697,4.414813001,5.878992346,1.582171625,7.520398386,1
76.34108146,0.9948136961,6.993865752,-6.4686934,9.578507543,1
139.0378757,0.8582477354,5.123981735,-1.61077635,5.439336213,1
66.55011804,-12.08541707,-10.15598443,-7.64168579,17.53843457,1
220.4882062,-4.518396719,-0.2095916909,-9.087479442,10.15096647,1
27.98836321,-0.7115839255,-1.381171394,-0.06936844289,1.555248560E0,1
73.14492567,-2.802770437,-2.443987331,-9.748531145,10.43371725,1
13.14647321,-4.224168628,-4.956794052,-7.561749675,9.9796526,1
167.7624616,2.754326255,-5.91977726,15.65185142,16.95908396,1
48.79284375,-2.373896172,-3.816940756,-0.3475153752,4.508346338E0,1
28.40748617,-1.293936199,-1.111739883,-2.526958444,3.048894133,1
54.38431192,0.06629134566,2.313566648,9.882732346,10.15014206,1
229.4017572,-6.333246158,-6.911822299,-15.00923891,17.69634276,1
225.7279265,2.301833625,1.42401482,2.463175262,3.659711548,1
142.6157442,-7.2911189,0.2281443214,4.144005933,8.389591755,1
9.847286292,-0.1988521099,-0.8091491041,0.07749373376,8.368211953E-1,1
58.70439571,3.092231585,8.261198874,5.357869191,1.032066206E1,1
0.6725075417,-4.830068516,-5.407403294,-11.36801049,1.348336882E1,1
103.430106,4.711124748,4.021027878,4.95126317,7.929588171,1
206.3851649,-0.7752912404,-2.137131739,-12.00102655,12.21446056,1
110.2500802,-0.7771436383,-9.103109635,1.820139999,9.315764428,1
195.9757663,-2.29544408,-0.07825738013,-1.707449536,2.861917479,1
18.27592654,-0.9763357638,-1.011783778,-11.98615825,12.06834403,1
75.53874733,-2.202595558,-2.269127809,2.86520876,4.267292988,1
173.1804339,-2.432443466,-4.077249441,-4.884302026,6.811545383,1
49.14516417,-0.4713101399,-2.263944837,-1.622564337,2.824941504,1
32.11836096,7.300949239,-11.96183032,-0.1994976791,14.01531462,1
197.7627552,0.1702217301,-6.470778517,-11.76421198,13.42745819,1
213.1706789,10.66317659,-9.427245356,-12.41569822,18.88718752,1
0.9128075417,-2.153589166,3.497346566,6.738963987,7.891958877E0,1
293.111993,0.9393933477,-1.89546617,-10.58398658,10.79333238,1
104.653281,14.22720188,-19.18147988,53.80667251,58.86850134,1
58.723014,-1.44143923,-0.6981115021,3.986041648,4.295769401,1
286.035283,-0.4701610158,-4.924706286,-14.00886919,14.85672236,1
194.9226519,0.4032187289,0.4336540711,0.7533364074,0.9582050613,1
20.02254958,-1.078338029,-1.587780713,-9.847663085,10.03296211,1
39.73244342,2.102194772,0.4240026569,1.317713901,2.517016297E0,1
79.01887025,1.53486955,8.813870096,2.145599531,9.200202604,1
8.117411167,14.43470787,-15.30434437,-10.11537318,23.34319007,1
63.059102,-0.2847117475,0.5861035547,-0.332625879,7.315860382E-1,1
17.90692,-0.03956313819,-2.919993662,-5.54085722,6.263307989E0,1
42.19495017,-0.3143074295,-2.656083677,-2.497874978,3.659637833,1
104.281886,10.33457711,-13.56261904,26.71314972,31.69133142,1
26.786939,0.3674692909,0.00529699266,-0.1582642472,4.001366140E-1,1
5.781555083,-0.78213029,-4.525550787,-9.557193877,10.60340948,1
44.15063987,5.186965603,4.688685181,15.72495214,17.20937246,1
190.4293695,-8.685682756,-5.411943657,-3.813478912,10.92121058,1
109.5717447,-0.5415164888,-1.944807023,-12.01777297,12.18615533,1
150.7462453,1.730634038,-13.50516547,1.390392745,13.68640861,1
111.9149602,2.967698171,8.608275561,3.204306922,9.652834994,1
73.97805842,-1.942588881,-1.133882119,-10.33735219,10.57923393,1
0.1017965417,0.03101918668,-0.6186579278,-0.1342620116,6.338186723E-1,1
265.4676818,-0.6233838668,-2.090478414,-17.0334748,17.17259361,1
185.986243,0.5371834827,10.3199731,-1.000549303,10.38226901,1
22.77215971,-0.1546934988,0.1464400077,0.3759822522,4.321312398E-1,1
160.7537938,-13.60813377,-10.61892019,-15.95256787,23.50376975,1
77.16347296,3.676381878,9.136690779,2.68682132,10.20852148,1
166.7193876,-1.442084763,0.9542340195,2.588994186,3.11336826,1
50.86526433,-1.122073375,2.443398809,2.905054611,3.958356817E0,1
68.64801121,0.9496193969,-3.220064583,-14.96713311,15.3390243,1
160.1600586,1.508206393,-7.00258512,12.62076709,14.51187951,1
124.206673,19.79921014,-0.1803909883,66.01856369,68.92381312,1
254.225288,2.029072417,-15.71106266,-5.797107353,16.86893827,1
26.30682975,4.256214586,2.858663679,5.782979311,7.728529636E0,1
217.396574,-1.65428782,-9.33493127,-13.69636826,16.65737414,1
114.13146,3.822103847,-2.289549209,-22.74602674,23.17827098,1
248.3330775,3.11732228,-15.43089332,-25.5882039,30.04307484,1
35.18997671,3.158516207,-17.4657349,1.244685102,17.79262097,1
20.20647754,5.927289762,-0.8406419152,0.9940442026,6.068572042E0,1
49.40355237,0.4110779715,0.04810124248,-1.28334923,1.348437642E0,1
185.125281,-1.580670937,-9.768191239,-0.7213674867,9.921514589,1
256.0220622,-13.17588771,-4.880486133,-5.172642848,14.97262154,1
56.80342442,-1.903314596,1.102661203,3.589720294,4.210054628,1
28.29716417,-1.006425389,-0.4078587869,-2.10629864,2.369754168,1
10.76745346,0.4934975459,0.06827881426,14.75560073,14.76400876,1
28.58499033,1.018766523,-0.6110667801,-5.432286705,5.560667827,1
159.8591714,-0.02115581095,0.009109377265,-1.664080153,1.664239557,1
63.86038496,-3.800722626,-6.575503319,2.132305301,7.888565286E0,1
44.175087,-0.8251083483,-10.00638225,-7.466105014,1.251204274E1,1
165.6261649,-1.975616294,-1.028829288,1.943940904,2.956426167,1
45.7051615,-3.213586453,-2.653421732,-11.24417231,11.99163024,1
299.074502,8.456242107,-3.121767333,34.47516478,35.63411916,1
8.595016708,-0.04156734444,0.2650852758,0.285854001,3.920593800E-1,1
219.6450343,15.30710894,7.522960415,27.12535971,32.04196712,1
60.26620933,0.8561997481,0.8518147749,1.901927344,2.252996680E0,1
139.223016,-1.146639867,-14.62392845,-12.33349689,19.16479094,1
98.69625875,0.2102433631,4.884842309,2.357758734,5.428159255,1
97.04471671,1.61555908,0.04078301355,-1.029027509,1.915878913,1
9.132988875,-2.990054415,-12.76554766,2.270358063,1.330616993E1,1
30.58182913,1.013087707,0.7073926413,-0.08800176501,1.238747497E0,1
154.530442,0.7035630074,-12.47825758,-16.78624049,20.92796653,1
53.68630217,1.236266573,12.64559086,2.726884103,1.299519989E1,1
20.14339746,-0.8019203375,-2.309263682,-4.178965266,4.841438389,1
5.151609375,0.4076561809,-0.5871282792,1.877230459,2.008705397E0,1
0.9865356667,-0.8078399125,0.2364038059,-3.932263051,4.021341168E0,1
103.580546,0.702040831,-20.32276749,-3.839875582,20.6942597,1
195.3035158,-0.5496894345,-5.693380671,-10.21431625,11.70679283,1
62.61894046,-0.3937987183,0.9747261715,0.2875274742,1.089880997E0,1
88.54662687,0.3426850634,6.357319145,10.56465919,12.33470566,1
174.9269909,-4.265532124,-7.138846294,-0.5666998619,8.335408775,1
60.74676733,0.6067065114,0.6479872692,0.06407364294,8.899919796E-1,1
9.56620625,-3.785861928,-17.52634362,7.497726756,1.943505539E1,1
205.2107493,-1.880555478,0.8241676775,-13.19053849,13.34938377,1
4.176886167,0.03362952992,-2.536149975,-7.124289066,7.562319905,1
222.8069327,-9.641899567,0.9833069605,-13.10681923,16.30097636,1
162.1389913,-15.5059131,-12.11706104,-17.91628742,26.61296421,1
159.0768674,-1.105168563,6.072938057,0.4330845523,6.187853944,1
86.86649529,4.63205285,-0.7702814922,17.41527693,18.0372148,1
75.84507817,-0.269238553,3.918032683,2.41333418,4.609517476,1
40.15032813,-1.847655681,2.119001132,-1.406300973,3.143513915E0,1
240.7444788,-8.841585313,0.4937877139,-8.926223175,12.57358013,1
42.88607679,-1.861792348,-0.707247338,-1.49111542,2.487949907E0,1
80.58342346,-0.9187152542,1.822930875,0.2609127027,2.057957758,1
20.81035825,0.02991932541,-0.003833434582,0.5959441262,5.967070159E-1,1
49.74691317,3.621176268,-1.086576975,-4.171460949,5.629800488,1
135.1464239,0.4437753456,10.37927088,-0.50250266,10.40089946,1
11.67948837,1.723235556,1.810493263,2.522674774,3.551241283E0,1
52.12446654,-0.1667570356,-1.455307072,1.050976202,1.802852617E0,1
45.6148985,-4.441714579,-2.082072749,-2.438898207,5.478328193,1
96.64024983,-0.008006592393,-2.218749953,-1.620756816,2.747684137,1
116.2376377,2.249652488,-0.1450729287,-0.3222780615,2.277245182,1
173.6321282,2.025783943,-0.5767640895,-1.058350711,2.357236438,1
40.34947017,-0.7536066949,8.721421523,0.6540964401,8.778323222,1
39.64233942,-1.413104208,-1.061958735,-3.501826118,3.922678424E0,1
158.2343395,5.314489868,1.723756105,11.02865564,12.36310571,1
96.21901883,2.085938635,0.02102892637,0.3944739255,2.12301481,1
14.40944592,-1.7003918,11.78835864,-1.415963497,1.199423546E1,1
176.2274299,-0.423877088,9.428134133,-1.591888089,9.570971357,1
242.912651,-2.727367083,-1.949511108,-12.10321249,12.55893615,1
34.76601442,-0.9396607116,1.189718058,8.491687344,8.625957643,1
14.24255604,0.5038314763,-1.455640363,-1.638106821,2.248583772E0,1
29.42005871,6.207923369,10.69583797,0.8479795861,1.239589980E1,1
64.91789121,2.235328125,10.54209713,3.291246833,11.26786623,1
287.4907765,3.905127878,-3.286064738,5.353603647,7.396574695,1
18.56880767,-0.3115078557,-0.5724336416,-0.7223825634,0.9729100606,1
233.9689552,2.822624658,-0.2041917872,10.55010547,10.92307785,1
13.91524408,-2.043858856,-0.5831482257,3.941340269,4.477899506,1
295.4508221,3.486540912,0.9709186108,0.4673726249,3.649258507,1
10.95790871,-1.476181778,-5.264861625,1.156985053,5.588961888E0,1
29.94067421,1.38890843,0.8212958175,1.965953186,2.543337448E0,1
248.5338338,1.650052682,-5.344527014,33.9472454,34.40497222,1
87.00702229,-2.369911149,-1.328182464,-6.936584673,7.449614382,1
223.6199927,-10.05076729,-4.479116294,-12.59650465,16.7257985,1
258.8426982,13.12288972,1.878854669,-9.80648173,16.48961532,1
74.56591946,1.468588437,-0.2135485017,-3.136217265,3.469612903,1
9.503443875,2.423988246,6.471167942,0.1873177461,6.912801276E0,1
101.8655273,-0.7300182961,-2.079442379,-4.933356657,5.403241178,1
158.6656554,-0.4718419442,9.923351784,0.6884967792,9.958392102,1
38.97894163,1.5935601,7.485305516,1.115968004,7.733991017E0,1
78.21398454,0.4848024438,-0.7754394673,11.68127624,11.71701986,1
224.3125997,-11.96146195,-5.120157655,-15.39021541,20.15319619,1
161.7748152,-0.2818166448,0.02809528649,-1.58348564,1.608613297,1
193.8580841,6.629497093,2.015112189,23.72409518,24.71525037,1
60.45614687,7.454218794,3.336796643,7.926226507,1.138088996E1,1
194.2406349,-0.0755425179,-2.077564838,2.647910439,3.366513333,1
48.18215425,-3.045902926,-0.7109363464,-0.3220131826,3.144303995E0,1
282.7930469,-7.042171354,4.494565222,1.067017454,8.422103073,1
48.70290142,-3.790391766,-10.24415693,18.48806091,21.47366334,1
300.9917423,1.138545274,-0.9269076419,-9.715806034,9.826104518,1
22.41224912,-1.068761094,-0.3089358848,1.653011373,1.992520579E0,1
69.97256958,9.192396033,10.65616227,15.00459622,20.57162723,1
0.4058265,2.237399793,0.9011427632,12.03244715,1.227182955E1,1
141.1402084,-5.22311309,-13.49757696,-7.23256839,16.17947896,1
112.6571361,-2.2609439,-2.435641308,1.630964885,3.701926843,1
27.257497,-2.45032045,-6.510458307,-0.4404014656,6.970228915E0,1
149.3181306,2.856053774,9.212702243,3.135061855,10.14196917,1
175.7359801,-0.06287116304,0.09083707988,-1.276743046,1.281513544,1
75.73466317,8.137957109,3.857054117,6.725048198,11.23963904,1
35.6574275,0.1832030605,0.4620925891,0.3443447225,6.047034068E-1,1
156.7588027,22.19760469,-5.320645232,28.33696127,36.3871721,1
39.45609592,-1.017546501,5.844224217,0.2426243663,5.937105706,1
43.20644579,-0.4531205118,-0.5661236188,-0.6054920447,9.446876553E-1,1
131.5843575,-0.9939176103,2.529584721,19.67182504,19.85868504,1
103.1275527,3.972587205,-11.40410535,31.45909376,33.69732405,1
14.45215558,0.1756001635,1.80733869,-0.5133198993,1.887009771E0,1
241.0456138,4.613706919,-2.511632307,-15.13642287,16.02204374,1
123.765015,2.110444024,1.56705438,70.25101227,70.30017324,1
82.01828117,-1.383661138,0.2697975469,-7.159129116,7.296604591,1
301.0017803,0.7935148188,-1.197136713,-10.42673156,10.52518566,1
75.87973933,2.682709558,-0.8046704292,0.607788831,2.865978425,1
157.7224185,18.4198356,-2.915938326,52.75955781,55.95859166,1
107.1209153,5.596698714,-12.91231745,-5.063284712,14.95619706,1
48.10203658,-0.5056406048,0.2850026464,0.2477675954,6.311003970E-1,1
123.0724164,-5.302724685,-12.59669878,-17.22458169,21.98822238,1
90.36191783,-1.192508934,3.151755656,-0.7349762964,3.449033405,1
35.64771887,-0.8360565287,-0.6743927103,-1.323702035,1.704694437E0,1
63.05728987,-0.9832343819,0.4118217373,0.05032698512,1.067183114E0,1
83.66238908,0.7525685218,-0.3114928722,0.4166258097,0.9148575052,1
30.87177558,-0.1482431428,0.1006393522,0.01109450698,1.795199061E-1,1
19.41871179,-5.247326995,-6.660359282,-7.614758193,1.139646299E1,1
48.40238758,0.05864991188,0.9801009321,-0.3082096606,1.029092243E0,1
3.600320292,35.56012266,0.3577482949,20.48335776,41.03922821,1
130.1517217,0.02339763343,-16.00623829,2.137588845,16.14835898,1
36.74629638,0.2470953666,0.3460762292,0.2898453104,5.146213954E-1,1
19.50825196,-2.724636141,-3.573542803,-7.298776413,8.571230215E0,1
150.1439865,8.116508353,5.69802336,5.463540072,11.32234287,1
24.21387946,0.750734835,-0.14683411,2.450545861,2.567165375E0,1
286.9085788,-2.639060678,-0.1840128998,-17.38629579,17.58640905,1
49.92751708,-1.60844258,2.425848099,3.670541679,4.684517344,1
8.695899625,-1.010479118,1.07441769,1.722990265,2.268068975E0,1
89.94806817,-3.583685968,-0.94971266,-14.40476779,14.87420903,1
103.0974397,19.58392268,-26.76914266,81.39019197,87.88902307,1
160.8922156,0.1367660818,13.80576966,-1.360723096,13.87333948,1
57.53303458,0.3242238687,3.878144732,-1.419274921,4.142398940E0,1
192.6358912,0.639901447,-2.253363131,0.7813613811,2.469340979,1
29.16976271,-1.231038577,-4.748118619,1.116517497,5.030576281E0,1
1.603666917,-1.45533163,-1.869860044,0.6451741737,2.455731347E0,1
251.234012,7.152340499,-14.22029047,-23.65712585,28.51372019,1
136.8614716,1.880259609,-10.67804021,-0.6335952249,10.86081774,1
295.9125651,1.973813744,-1.003976795,-3.043058256,3.7635241,1
216.814385,7.184526497,1.964275181,27.80888519,28.78905857,1
64.90786221,2.231496883,10.79626624,3.710202173,11.63204811,1
111.6441662,3.815469012,10.17914876,-0.9090620128,10.90867852,1
74.65058767,-3.923796575,2.354695524,-1.001546765,4.684428087,1
8.930490667,-28.03410824,-4.838702515,-2.948247408,28.60098652,1
45.7653365,-1.369669921,-2.425441132,-7.863979388,8.342717315,1
56.66703438,-7.16729943,0.2825038754,-1.945366893,7.43198775,1
57.51951317,2.355173826,-1.159820368,-0.5188719767,2.676052161,1
5.095974708,-18.9738967,-14.846415,-5.530797086,24.71870771,1
174.0510089,4.229649808,-0.7489371085,8.337155374,9.378646172,1
259.444969,0.007049403191,-0.7306546193,2.643452522,2.742580373,1
170.5707429,-0.06081089661,1.047881856,-0.7588715279,1.295237563,1
159.1477667,8.747633421,-1.384405197,9.528256592,13.00866411,1
64.55260046,-4.105832093,-1.615637725,-15.82398292,16.42761632,1
25.17246638,-0.08878821552,10.90190788,5.49945484,1.221079368E1,1
8.564979708,0.2022766048,0.1842931277,0.560882467,6.240744536E-1,1
294.1258203,10.61834716,-4.942397622,-4.490714831,12.54364821,1
30.53368371,-0.9925660995,1.087337113,-2.95597275,3.302311971,1
42.98604533,0.6627538276,3.223541338,-1.135008804,3.481193241E0,1
7.275905292,-0.8118493482,0.02456239879,1.639718898,1.82985812,1
278.4366073,5.730526278,-16.74084037,-14.87500438,23.11623721,1
193.0270472,-0.3762420148,-0.7953242397,-0.8476930726,1.221753758,1
32.52949804,-1.808003665,-0.364808954,-7.696726216,7.914641955,1
35.05428625,-0.376307065,-0.4643028367,1.420087538,1.540724747E0,1
221.2310012,-1.973793425,1.490394751,-4.608587682,5.230317143,1
171.7851955,-1.351901694,7.292795881,37.97157053,38.68918038,1
178.4201045,-1.291660755,-7.234628949,-4.967323717,8.870318396,1
173.6923552,0.04072804973,7.510088355,24.99817072,26.10194677,1
182.7563869,-0.8746297333,-9.4691237,-1.998635028,9.717192125,1
210.6512048,-0.6913888121,-6.078821526,-13.94363882,15.22679064,1
9.47609625,3.923707113,10.31531989,4.385205917,1.187566136E1,1
282.190775,-1.597450545,-5.188154926,-3.753499635,6.599815096,1
40.63348212,-0.7497902173,0.06660504878,0.9088333136,1.180084571E0,1
248.5438718,-2.216915097,-2.178511754,25.03370075,25.22591523,1
156.2569197,36.62629928,-9.321731765,43.7496908,57.81363098,1
65.54236446,0.2860827734,-0.04743846059,0.06814111233,2.978875156E-1,1
125.2874,-0.2570557331,-0.1850585282,-0.2218731827,0.3867195598,1
47.95169367,-2.059867216,-2.67391593,-8.700056382,9.33187336,1
42.15269579,-1.888800052,-7.273250978,-3.558893774,8.314653951E0,1
80.47310246,1.774847175,1.289102598,-0.4713703662,2.243670658,1
21.37048333,0.5084068494,-1.053947757,0.04532059908,1.171041142E0,1
44.515489,0.1242350601,-5.143535408,0.7134164429,5.194261629E0,1
12.41086021,-5.178689454,10.46861166,-8.388986263,14.38004677,1
304.1737572,3.90176836,-3.149598618,-2.622176843,5.658584557,1
76.19064346,-0.4893333051,-0.9244331002,1.596759989,1.908838941,1
47.34119029,0.9350876042,-1.86278959,-1.836308135,2.777841150E0,1
246.496154,-11.04704864,-1.539172516,-16.36552865,19.80497068,1
42.52769392,-0.08998645619,-2.243632779,-0.01015544415,2.245459584,1
188.2068557,2.70103824,0.8156575667,33.87099771,33.98831256,1
3.796393875,-5.824002206,3.296166095,-1.642906215,6.890780323E0,1
53.25805621,-0.3270531902,0.2767726904,-0.6113543169,7.465393574E-1,1
161.2332192,1.180338613,-4.26289503,-5.10244527,6.752808379,1
39.00160062,6.606504672,6.618688515,7.567404517,1.202990244E1,1
101.6921633,-4.085009281,2.277263917,-22.18686218,22.67443682,1
13.12121529,1.565678237,-0.08726793945,-0.7819270992,1.752248277E0,1
111.9908244,2.610428909,-12.92884285,-11.71696881,17.64246793,1
114.7210725,-3.78256439,-16.95357026,-25.25201239,30.64955901,1
248.9152718,0.8859505275,-8.219755563,-19.19017352,20.8952638,1
42.78667217,0.6403042471,-1.518659899,-3.0482576,3.4652838,1
208.0112787,0.4040164353,1.385544819,-2.241581576,2.666017946,1
32.99084221,-2.287970754,2.073041578,15.02173792,15.33574001,1
110.0394622,-1.332756741,3.039386204,5.929602921,6.795167388,1
32.99463962,-2.948181042,-1.604032171,0.3315827358,3.372630691E0,1
79.22948325,-3.257776785,-1.670357139,3.65005742,5.169731301,1
31.70275758,-0.1194942838,3.155729424,-2.756413711,4.191744700E0,1
120.0510781,3.277639777,-5.619475958,2.621510845,7.013825751,1
188.6240348,3.871181282,8.540924408,-0.9615664279,9.42645449,1
84.52770971,0.05401102334,0.9869638091,-1.219206444,1.56954742,1
65.79265946,0.3526490112,-0.4939999679,0.02381453991,6.074244197E-1,1
21.84845954,-2.205822636,0.1268179214,1.68061257,2.776003404E0,1
121.2423301,1.929263808,3.204674712,-7.723065584,8.58124355,1
51.52207467,1.744120056,0.3151588937,1.611449364,2.3954225,1
198.0839622,5.152752959,-13.11562864,-1.025896325,14.12880183,1
176.4326418,-9.103309609,4.403595995,3.049590765,10.56228703,1
163.1990124,7.568923624,-11.71024218,0.05009485066,13.94348902,1
305.6392939,-2.338397288,-2.981352297,-9.69460403,10.40874203,1
13.59818579,-1.941742497,-3.011652861,-6.075240106,7.053294211,1
297.3881369,9.28759572,-7.680547555,37.64633436,39.52842946,1
47.85177525,0.3933350341,0.116112839,-0.09821217299,4.217111231E-1,1
10.22701475,0.5686957359,-0.2116142428,-0.2517156172,6.569293567E-1,1
49.60630708,1.247818332,-1.765304226,-8.523148872,8.793032259,1
147.6131125,-1.078573014,12.77979966,0.4335557648,12.83255897,1
228.7994896,-8.325684891,2.520276538,-9.351798733,12.7720383,1
219.7554493,-0.3763665605,2.5564518,2.632244579,3.688605307,1
1.165834375,-1.866599051,1.502097076,-1.310046448,2.730697592E0,1
123.0376042,3.254119644,-0.2666371268,-7.272948092,7.972211987,1
87.45343608,2.618705351,10.34229894,3.069667765,11.10151455,1
37.10913808,0.9999629004,0.3036195964,-0.6319612205,1.221263954E0,1
16.84565979,1.642676273,-0.1690263399,2.582202353,3.065081440E0,1
152.974605,2.735695564,-11.07521818,-9.255538945,14.69045572,1
49.01079942,-1.308612126,-4.114368736,-0.003373843431,4.317465364E0,1
115.0641961,2.72130469,10.32431173,4.09728551,11.43611212,1
116.5886677,0.9227637202,-0.7239069325,-0.1812940907,1.186761003,1
34.04308454,3.083927077,12.98382422,8.522957668,1.583449099E1,1
216.714007,7.119738178,-2.438369765,-0.8968400896,7.578960416,1
21.56812054,-0.07139055625,6.544251705,0.4944230505,6.563290421E0,1
29.55062575,-1.159830527,-0.2825142176,-0.8262139106,1.451774969E0,1
21.34690492,1.976232006,-2.102630682,-1.179240725,3.11723554,1
54.32705467,-1.213060874,0.2483119529,-0.3924101508,1.298907709E0,1
233.4670652,-1.441389675,0.2269364329,-3.533423302,3.82285032,1
20.12899633,0.3978556627,-0.3822400886,-0.4837810814,7.337852195E-1,1
227.5949551,4.537560676,-10.35980667,-15.76999324,19.40638395,1
3.038195833,-20.11799566,-17.36217837,-2.60146542,26.70106008,1
259.575461,-0.8978168669,-0.8178667179,0.6687179875,1.386421596,1
210.8318838,12.72980947,-10.79229247,21.62676441,27.31736746,1
16.92575479,-1.376542884,-0.5783902001,-3.332550395,3.651752684E0,1
35.0667315,0.2817254283,-0.07563958168,-0.434128865,5.230281395E-1,1
155.4037187,6.383645064,-1.593339368,1.985429091,6.872523795,1
304.5351229,-1.617196885,-3.334546049,-4.912978526,6.154013415,1
143.3906856,0.7635490081,-3.09556099,0.04294926077,3.188628164,1
55.49362167,0.4536362728,-0.6902351564,-1.513306189,1.72403772,1
147.1617845,0.8348594575,-62.26018397,3.373588493,62.35710543,1
2.933269292,0.193073599,3.62636421,20.49774659,20.81695007,1
20.69968033,0.1778785859,-0.158976438,0.247053084,3.434378044E-1,1
128.6633965,-8.538819995,11.79557644,27.77388843,31.35978235,1
0.6661446667,-5.271859573,-3.578742147,-8.092826545,1.030018156E1,1
87.26800358,0.6608705856,-0.3639950216,4.028324034,4.098370021,1
144.7145821,-4.141294871,9.464100357,1.152604026,10.3946147,1
157.3818742,-2.286326809,6.736220473,-2.916604616,7.688337858,1
41.16152429,-3.41720229,-4.523714177,3.19412692,6.507204332E0,1
226.9625749,-7.56724138,-11.88022074,-16.28417283,21.53084001,1
65.75261246,0.2310366467,-0.1784239849,-0.3273481822,4.385999121E-1,1
194.6017029,-0.7672599435,-0.300342232,0.413888728,0.9220613626,1
108.966318,2.03476205,8.389687929,1.732325345,8.805002626,1
182.5857459,-8.533982009,11.67413796,7.926205457,16.49057546,1
53.58844121,-3.122838543,-7.329495345,-0.1908385009,7.969318786E0,1
1.950411667,1.884964279,-1.261321015,0.787381382,2.400831205,1
257.8188377,-1.043761615,-13.66726783,-15.20894705,20.47426967,1
39.98251825,-0.8044625607,0.8290913254,0.7226322395,1.362626064E0,1
100.818885,-3.438704841,-5.023300867,3.386414945,6.96606408,1
163.0987161,9.27595216,-18.32518321,-0.5342806325,20.54607223,1
84.04349858,1.481159951,4.109063557,0.2122945663,4.373020363,1
166.9600976,-0.1103784746,-0.4188506752,0.9918098353,1.082268934,1
46.848486,-0.2611968043,-0.02944131553,-2.410811691,2.425098673,1
57.8111455,-0.8292519046,7.28959453,0.9974765182,7.404107410E0,1
10.53811742,0.5768295783,-0.6648944932,-0.7530091095,1.158378077E0,1
197.1404172,-2.056841136,-4.744667593,-8.411908518,9.874344076,1
9.271784458,-20.50288279,-7.800326014,-12.1012104,25.05299546,1
60.68669733,-2.458764122,2.928323606,1.948995091,4.291757450E0,1
2.428294,0.4734428753,-0.4208837521,0.89646119,1.097694836E0,1
49.15326575,1.91022235,4.22986177,0.8370406151,4.716070081E0,1
187.2733493,-5.946410158,-3.620750299,-7.712945223,10.39033929,1
26.88751029,-1.35192713,2.125751742,-0.4141079986,2.553039927E0,1
10.64824942,11.21400536,3.530109977,9.478083388,1.510131310E1,1
79.04711554,7.686495928,-1.049409003,25.12907117,26.29930982,1
34.39350025,-6.344069354,8.686933476,-4.169816712,1.153678467E1,1
242.470986,-3.277117621,-6.615265555,-17.11255722,18.63708274,1
91.61557575,-1.728053077,-0.3196795589,1.637402816,2.401968035,1
15.08026163,-1.250855083,-0.4431476104,0.1128533817,1.331823611E0,1
29.20982429,0.1067024032,0.4462754323,4.673616321,4.69608738,1
61.11287042,0.3622638072,0.440775395,-2.064544258,2.141929273,1
57.96079717,-0.2594747993,-0.4523825566,-3.509065556,3.547607394,1
178.2494637,-4.995481569,11.08140103,9.3218797,15.31828078,1
82.91163829,-6.541714599,-0.1582361805,-9.723366483,11.72019302,1
72.93413367,8.698838407,-14.4191917,42.1413276,45.381432,1
41.22397733,-3.858317993,-0.8754135525,-3.231692941,5.108503292E0,1
199.8706772,-2.071962036,-13.59210538,-19.22134619,23.63257296,1
266.7625657,-1.156802327,-3.487403961,-13.26899994,13.76831643,1
211.4843375,-0.6215066913,-3.320185872,-16.09734961,16.4479351,1
15.45336713,4.125308291,-3.121270612,-1.450472009,5.372556913E0,1
136.3900846,-3.172216818,8.562554428,0.1805994415,9.133067066,1
30.24283671,-2.495228236,-4.006867968,-5.280749094,7.082899538,1
25.83580988,-8.074910676,-34.12866112,5.437498913,3.548994345E1,1
56.89228958,0.02641110566,-4.670044257,-0.9543908711,4.766641674E0,1
108.4073728,5.701504793,-6.684582542,6.116041977,10.7049881,1
47.18864942,-1.834853056,-6.415738676,0.4243605065,6.686439287E0,1
82.69958458,-3.741209081,-5.540854881,-0.8019526434,6.733561186,1
1.559274667,-0.1702348863,3.615639832,7.01206521,7.891190647,1
169.7784071,-0.07674075857,0.1218553895,1.562088339,1.568712166,1
55.22034233,-1.695613309,-4.577319111,2.143235209,5.331079807E0,1
189.1054568,-45.71893948,-120.2313744,8.939826722,128.9407823,1
241.3166348,-0.7149639085,-1.213522366,-4.629901952,4.839400997,1
50.05431713,1.682131092,2.116363453,-0.617516332,2.773064315E0,1
5.356961667,-10.13850827,-5.801622573,-5.807863306,13.04528461,1
146.3995402,-2.722057226,7.952937757,-0.3000270671,8.411232416,1
11.81965637,-1.467876247,-0.5348272741,-1.739242017,2.337875891E0,1
203.2835053,-0.2169915981,-0.04360564727,-14.13195074,14.13368383,1
208.0614677,0.196254192,-1.617778391,-5.56273984,5.796533202,1
276.4992985,0.09460444093,-1.548823346,-1.340961846,2.050849197,1
174.9771789,2.549236628,0.3425684845,5.559143803,6.125360428,1
42.23506717,-0.2794026218,-2.625516188,-1.067917925,2.848130926,1
32.89171179,7.275649506,-10.76295582,4.422042791,1.372336534E1,1
221.6927398,-0.7702449471,-5.944701017,-14.22391692,15.43543196,1
201.0350537,3.150882667,-0.7162982431,-7.703677386,8.353908667,1
291.2449448,1.58329546,-3.289597333,-14.33547711,14.79304496,1
50.94531767,-0.7033469528,-0.5744868913,0.2708459526,9.476759227E-1,1
42.14625417,-2.437570597,17.39257687,3.056588713,17.82655926,1
98.75643475,-0.9032047107,-7.07455265,-0.08656101108,7.132500736,1
102.377024,-0.5988072154,8.883786423,3.583335135,9.597943633,1
93.02964017,2.094636953,1.743174269,6.357779905,6.917190602,1
189.1856937,-14.47108808,2.107072227,-15.56081962,21.35395165,1
141.8428443,0.7010920472,-10.91864846,-12.64006407,16.71764439,1
50.51974967,-2.337487461,-5.65987788,-9.627117221,11.40962099,1
292.489644,3.990311577,2.597707415,1.996777368,5.163118258,1
272.5845283,4.314706038,2.122381261,0.9856844383,4.908438064,1
95.79000567,2.299687404,-0.8520778996,1.458736464,2.853508538,1
159.980893,16.60464702,-14.52178461,47.35181889,52.23783382,1
249.8588289,4.850325025,1.936716523,33.17416865,33.58276328,1
173.3611112,-2.052754517,-5.401304063,-3.723556629,6.874064348,1
179.8053057,3.338133901,-7.550047057,-10.73438164,13.54153971,1
25.46316842,0.7944068116,11.55834438,0.1222581165,11.58625712,1
178.5204815,-0.5011128134,-7.594841992,-10.65047878,13.09066221,1
43.13769325,1.924460466,5.0233149,6.05217284,8.097285765,1
76.90907892,-3.857846415,-2.793413723,-8.658025426,9.881677159,1
197.4816992,0.3866959593,-5.192436258,-5.287346508,7.420711634,1
39.79797687,-0.2900772987,0.0275301531,0.2822936314,0.405699942,1
32.38356288,0.4402055839,0.1808578885,0.02583643399,4.766110083E-1,1
23.96100738,-21.08846506,-46.2797202,26.10740157,5.716758065E1,1
34.78845871,7.225427186,-18.07266769,0.5275416799,19.47065525,1
5.681263083,-3.59080086,-1.769154618,-9.749509385,10.53929277,1
171.9247361,-4.749316714,3.866895273,5.304087086,8.101989146,1
113.7173047,7.03410512,-15.66964683,-21.14980703,27.24574837,1
32.56003258,4.776082051,-11.59190856,-1.395012338,12.61464876,1
5.989110625,-1.519791043,-0.03118027747,1.534362597,2.159862404E0,1
15.19039563,2.348241952,-0.1663006604,1.676064021,2.889824697E0,1
195.9057788,-0.288610744,-4.1065896,-5.886738153,7.183387807,1
56.78738437,-0.270494133,0.4032209947,-8.063520885,8.078126225,1
37.19308408,0.1575935715,0.2737928762,3.775060658,3.7882557,1
134.3540932,1.621627613,-7.897693264,0.8575772059,8.107938929,1
39.05142338,-1.804087492,-1.422510039,0.2811478695,2.314586489E0,1
43.57355967,-0.1605256578,0.3157572466,-0.2213153583,0.4176740517,1
100.598056,3.784134075,-7.095240684,-2.151055568,8.324010519,1
61.58556754,-1.035442709,0.07134655595,0.3248281053,1.087540910E0,1
230.0742892,-4.077975665,1.531166363,-6.672268306,7.968282143,1
298.0205233,-1.122992703,-3.802957724,-10.8445619,11.54677976,1
169.7475465,1.900693435,9.14990724,27.63573978,29.17306208,1
90.59048217,6.357197523,3.125251982,4.579958544,8.435471567,1
123.825241,8.302067403,-0.5058157289,4.970060799,9.689255753,1
79.06719154,9.59418044,-2.760056819,32.11411523,33.63008488,1
101.6147943,4.216210568,9.41151927,5.773316787,11.81881184,1
212.1167155,-1.162548679,-8.720128119,25.30825559,26.79365512,1
282.6224029,1.839941741,-1.951794007,0.7155050683,2.776118326,1
11.12543417,-0.528957839,-1.361931716,1.17071373,1.872224621E0,1
19.89266646,-1.511331438,2.276414609,6.656773185,7.195749816,1
97.91397208,-2.577952889,7.143426418,-9.358522446,12.05223317,1
41.86399192,-3.068353311,10.6989674,12.05805678,16.40973579,1
12.02990837,-1.866841711,-1.652897353,-1.930161794,3.153203479E0,1
102.266701,2.252699033,10.7309388,4.330376576,11.78897204,1
99.24787162,4.519938338,4.455083653,-4.384117751,7.71350124,1
39.82806487,-0.9749910504,0.4422295976,0.09390335977,1.07470573,1
13.43158729,1.96368622,0.3777704769,0.6897317111,2.115302328E0,1
54.95204704,-0.06263765814,0.2269134825,-0.5397482908,0.5888475373,1
59.94657338,0.6305695832,0.4989516824,0.644648509,1.03060297,1
111.5190534,17.69280216,-12.78176549,13.09700526,25.45467195,1
33.02467462,-4.691837122,-1.810449117,0.7382735413,5.082923313E0,1
0.9428445417,1.902139598,4.454409469,-1.945638789,5.219713504E0,1
0.3020465417,-2.220019676,-1.985220053,-3.981623492,4.972213959E0,1
122.4601184,4.903933468,-3.07009812,-2.246880323,6.206652649,1
45.61913133,-1.611665711,-14.96432761,-2.131410531,1.520103543E1,1
34.91895171,-2.545054115,8.664073201,0.4227419972,9.040031841,1
213.8432098,0.8433605781,-5.729940387,-19.52592532,20.36676787,1
289.3277095,-0.4245552919,-5.667151816,-12.5237267,13.75283925,1
