Time (s),Linear Acceleration x (m/s^2),Linear Acceleration y (m/s^2),Linear Acceleration z (m/s^2),Absolute acceleration (m/s^2),label
0.02364445833,0.09790519416,0.4065738612,-0.2641596615,0.4946393216,0
0.03368145833,0.1925379941,0.3191284588,-0.01696920455,0.3730975828,0
0.04371945831,0.2141574892,0.06405361623,0.1360775721,0.261693335,0
0.05375745831,0.1232701233,-0.2523494554,0.4545935351,0.5343510579,0
0.06379545832,-0.02210042864,-0.5872069243,1.050713663,1.203868598,0
0.07383374998,-0.07602286667,-0.8338565138,1.570620012,1.779871732,0
0.08387174999,-0.1177874815,-0.9855198392,1.889264029,2.134113824,0
0.09390974999,-0.2621314086,-1.14662788,1.985011016,2.307322496,0
0.10394675,-0.1736674212,-1.156821623,1.923867266,2.251590971,0
0.11398475,-0.04594025776,-1.076295523,1.727516595,2.035887066,0
0.12402275,0.03267979592,-0.8607425961,1.466588105,1.700831107,0
0.13406075,0.1604280093,-0.5584260517,1.146951815,1.285719747,0
0.14409875,0.4770108828,-0.2937883803,0.7542656761,0.9395571856,0
0.15413675,0.8087643573,-0.1190683141,0.3152678347,0.876168281,0
0.16417475,0.9741179149,-0.1322078848,-0.1142709661,0.9896678688,0
0.17421175,0.9978631653,-0.1190387857,-0.3220242923,1.055272843,0
0.18424975,0.8103607933,-0.1737298402,-0.2252610594,0.8588417885,0
0.19428775,0.5405699708,-0.3283685213,-0.1398618901,0.6477678036,0
0.20432575,0.2041121189,-0.5231603247,-0.03302799761,0.562538293,0
0.21436375,-0.1388425742,-0.6504968941,0.02669604778,0.6656847217,0
0.22440175,-0.3343334122,-0.6394631982,0.1319634712,0.7335573393,0
0.23443975,-0.177069916,-0.673973465,-0.05068658888,0.6986867087,0
0.24447675,-0.0253443177,-0.7614010334,-0.4612412345,0.8905713585,0
0.25451475,0.04121863112,-0.7178170574,-0.8593407261,1.120458293,0
0.26455275,0.07744520187,-0.6694959596,-1.082327219,1.275011689,0
0.27459075,0.013476151,-0.6826934177,-1.236622961,1.412617519,0
0.28462875,-0.1370648745,-0.6447669151,-1.412826465,1.559034886,0
0.29466675,-0.241306477,-0.4851005057,-1.493005241,1.588274524,0
0.30470475,-0.3401628669,-0.3340388587,-1.37548907,1.45576884,0
0.31474175,-0.1991465903,-0.1214966628,-1.239716138,1.2614741,0
0.32477975,0.03413399845,0.01682331651,-1.136058453,1.136695633,0
0.33481775,0.3007812848,0.1268755165,-0.9722978228,1.025636307,0
0.34485575,0.5474151599,0.1790513912,-0.8397554773,1.01828877,0
0.35489375,0.6546361381,0.2161566523,-0.6857836711,0.9724049646,0
0.36493175,0.6237149654,0.3044145253,-0.5114612156,0.8621375391,0
0.37496975,0.5849141945,0.3612646642,-0.412248584,0.8016144133,0
0.38500675,0.4957949169,0.3628980839,-0.4111259186,0.7392781208,0
0.39504475,0.4343789797,0.3437221402,-0.4024907506,0.6847107505,0
0.40508275,0.4353835313,0.3436768243,-0.3350191444,0.6480049429,0
0.41512075,0.4312630715,0.26754403,-0.2450579774,0.5635787941,0
0.42515875,0.5085942161,0.1865674022,-0.2370449531,0.5913254451,0
0.43519675,0.5210076723,0.07191461295,-0.1934855354,0.560408207,0
0.44523475,0.4589424383,-0.01743464291,-0.06207170248,0.4634490529,0
0.45527175,0.3926381191,-0.07350183964,0.07600971043,0.4066259818,0
0.46530975,0.3640553941,-0.1122101149,0.253939898,0.4578350267,0
0.47534775,0.3039000434,-0.07703224227,0.4358549631,0.536897338,0
0.48538575,0.2763729601,-0.008736032546,0.633297894,0.6910315144,0
0.49542375,0.2277946579,0.005957581848,0.8218916488,0.852896114,0
0.50546175,0.214458767,-0.03949706465,1.036672159,1.05935912,0
0.51549975,0.179723017,-0.0382770431,1.208214848,1.222108266,0
0.52553675,0.1936514501,-0.0207416819,1.205071385,1.22070805,0
0.53557475,0.2555496365,-0.09196530014,1.111344026,1.14404929,0
0.54561275,0.2077565423,-0.310371961,0.931687156,1.003760176,0
0.55565075,0.1555504082,-0.5785689788,0.7215551823,0.9378591972,0
0.56568875,0.07340901509,-0.7193380643,0.5655976617,0.9180069985,0
0.57572675,0.003123290241,-0.7263208093,0.4837272871,0.8726647473,0
0.58576475,-0.01868799359,-0.6090146998,0.5031160694,0.7901733512,0
0.59580175,0.05997503713,-0.4148482561,0.5277919042,0.6739884085,0
0.60583975,0.2976523666,-0.2368936564,0.5206892914,0.6448510479,0
0.61587775,0.5724160999,-0.1753753929,0.4771246111,0.7655485709,0
0.62591575,0.7763747294,-0.230053145,0.4034169495,0.9046697769,0
0.63595375,0.9382800378,-0.3873097707,0.2341821563,1.041738725,0
0.64599175,1.112331329,-0.6039362468,0.02977636099,1.26605948,0
0.65602975,1.210130396,-0.7951774746,-0.07685521781,1.45004466,0
0.66606675,1.223633079,-0.8969428544,-0.07201196909,1.518871331,0
0.67610475,1.174011414,-0.8523566656,0.04491480231,1.451493033,0
0.68614275,1.031772777,-0.6834268047,0.3383684295,1.283012258,0
0.69618075,0.806355743,-0.5426604965,0.7420087427,1.222811095,0
0.70621875,0.5991402143,-0.4558400153,1.147916021,1.372760106,0
0.71625675,0.4052680318,-0.4720406033,1.319832348,1.459116834,0
0.72629475,0.2632058345,-0.5593560514,1.252738472,1.396964632,0
0.73633175,0.3334697784,-0.7338110925,1.025612735,1.304439456,0
0.74636975,0.449977743,-0.9340928467,0.6849662304,1.242653673,0
0.75640775,0.5723981197,-1.079376421,0.1431041712,1.230110511,0
0.76644575,0.837641855,-1.275976476,-0.2898686993,1.553635642,0
0.77648375,1.202653561,-1.446314054,-0.7225024313,2.014996202,0
0.78652175,1.309313353,-1.537846222,-0.9815130347,2.245582396,0
0.79655975,1.379749936,-1.553944776,-1.170827166,2.385223366,0
0.80659675,1.587870467,-1.45430369,-1.373195207,2.553820064,0
0.81663475,1.729345458,-1.265766945,-1.512758889,2.623211987,0
0.82667275,1.828057129,-1.151489109,-1.625959815,2.703972144,0
0.83671075,1.597513842,-1.337670741,-2.131379102,2.980635899,0
0.84674875,1.555952271,-0.8780018225,-1.890889555,2.601410767,0
0.85678675,0.4568963148,0.01729577154,-1.832761799,1.888933349,0
0.86682475,-0.641648595,0.6342043586,-1.742411208,1.962122551,0
0.87686175,-0.7701546076,0.8743682896,-1.235182207,1.698038018,0
0.88689975,-0.4441466072,0.7700788131,-0.5504656523,1.04560988,0
0.89693775,-0.1640161532,0.7514133313,0.1334246904,0.7805930059,0
0.90697575,-0.1486172184,0.8499347489,0.6427890944,1.075943295,0
0.91701375,-0.218395405,0.9220121337,0.9318415225,1.328958822,0
0.92705175,-0.3614773567,0.9584160212,1.031362887,1.453594357,0
0.93708975,-0.5977320586,1.005394525,0.9789507848,1.525269289,0
0.94712675,-0.8918712719,1.083678949,0.7604187012,1.596255315,0
0.95716475,-1.014510773,1.131233769,0.5559409851,1.618021115,0
0.96720275,-1.028919043,1.200813369,0.3845789748,1.627429917,0
0.97724075,-0.9636188006,1.243194354,0.2528113854,1.59311236,0
0.98727875,-0.8935368513,1.3031365,0.1674519771,1.588903083,0
0.99731675,-0.8128332885,1.341776071,0.06795575559,1.570248058,0
1.00735475,-0.7479767033,1.418890905,-0.06267513514,1.605194294,0
1.01739175,-0.7309491728,1.46910767,-0.2201324666,1.655603317,0
1.02742975,-0.8021458939,1.508048665,-0.4044039595,1.755332268,0
1.03746775,-0.8483108309,1.502197648,-0.6047167039,1.828089531,0
1.04750575,-0.8943801659,1.51064746,-0.6869922906,1.885187003,0
1.05754375,-0.9032385515,1.540782986,-0.6611423349,1.904458263,0
1.06758175,-0.8363345638,1.535780254,-0.513360976,1.822530105,0
1.077620083,-0.8733367677,1.577706545,-0.3094557023,1.829655127,0
1.087657083,-0.8978099965,1.594456917,-0.1489788687,1.835905867,0
1.097695083,-0.8854675475,1.579659222,-0.005247291327,1.810912359,0
1.107733083,-0.9078875265,1.56192374,0.04446281254,1.807164207,0
1.117771083,-0.8866213493,1.489320618,-0.001194001436,1.733255534,0
1.127809083,-0.8016219833,1.3821796,-0.07900874734,1.599768931,0
1.137847083,-0.7588908237,1.301448994,-0.1419101697,1.513216198,0
1.147885083,-0.7046511742,1.213168024,-0.1411406761,1.41004632,0
1.157922083,-0.6576841454,1.139710624,-0.02249189973,1.316052669,0
1.167960083,-0.6083738449,1.060979911,0.2513144982,1.248581629,0
1.177998083,-0.5680134389,0.9204599172,0.5318802774,1.205314214,0
1.188036083,-0.5486379589,0.7817289517,0.7572179353,1.218803826,0
1.198074083,-0.5596302858,0.6399421582,0.8668105441,1.214113892,0
1.208112083,-0.5955140635,0.5075662391,0.8486075771,1.15429429,0
1.218150083,-0.6997210944,0.4139042962,0.7377069461,1.097787737,0
1.228187083,-0.8254169351,0.3476827517,0.4767088741,1.014617052,0
1.238225083,-0.8315360463,0.2576503949,0.1022175157,0.8765183071,0
1.248263083,-0.6240231867,0.08216975212,-0.2765481573,0.6874850464,0
1.258301083,-0.2695236048,-0.1564624277,-0.5035908633,0.5922222745,0
1.268339083,0.07375012703,-0.3558046073,-0.2497076833,0.4408967305,0
1.278377083,0.3018744218,-0.3403736591,0.5675120401,0.7273598215,0
1.288415083,0.4039575977,-0.09492450289,1.82769928,1.874213718,0
1.298452083,0.4430787595,0.08649040595,3.108117886,3.140731789,0
1.308490083,0.2842581497,0.1978329402,4.003649368,4.018600357,0
1.318528083,-0.03715467006,0.2340410192,4.255442753,4.262035745,0
1.328566083,-0.2559036123,0.1149949244,3.840212674,3.85044723,0
1.338604083,-0.2800609452,-0.0996836248,2.900873852,2.916065854,0
1.348642083,-0.1729022399,-0.2697605632,1.845717475,1.873322968,0
1.358680083,-0.05879623845,-0.3775737181,0.8394876748,0.9223656902,0
1.368717083,0.07886899889,-0.3802992515,0.0494288528,0.391524011,0
1.378755083,0.2737178126,-0.357401555,-0.5395646882,0.7027000535,0
1.388793083,0.3926010624,-0.2961576721,-0.928226189,1.050451721,0
1.398831083,0.3833623885,-0.1909088136,-1.134839893,1.212961038,0
1.408869083,0.2578899845,-0.0729735437,-1.184119642,1.214072365,0
1.418907083,0.1118748502,0.001167835146,-1.101389726,1.107057666,0
1.428944083,0.02452475734,-0.02618777856,-1.032459825,1.033083033,0
1.438982083,0.03714758031,-0.1337147123,-1.010718123,1.020201299,0
1.449020083,0.118491267,-0.1935283662,-1.168566633,1.190395474,0
1.459058083,0.1804858594,-0.1848230316,-1.393014929,1.416765786,0
1.469096083,0.3867695611,-0.2057557712,-1.595841392,1.654882436,0
1.479134083,0.4399708182,-0.1807462066,-1.840625719,1.901090884,0
1.489172083,0.3333153389,-0.1017111468,-2.080735783,2.109716965,0
1.499209083,0.1749807789,-0.07203082636,-2.267826803,2.275707609,0
1.509247083,-0.04258541778,-0.06544817716,-2.345253879,2.346553374,0
1.519285083,-0.1909588804,-0.05952816367,-2.382468483,2.39085026,0
1.529323083,-0.2537503751,-0.1294452216,-2.378433319,2.395431145,0
1.539361083,-0.3067654715,-0.139306697,-2.397980561,2.421533023,0
1.549399083,-0.3058480433,-0.06316235438,-2.407531403,2.427702611,0
1.559437083,-0.2308765791,-0.01367634505,-2.388686412,2.39985704,0
1.569474083,-0.0573705411,0.04930109113,-2.344920003,2.346139765,0
1.579512083,0.02677191541,0.132501415,-2.344124781,2.34801924,0
1.589550083,0.1261120163,0.2437943941,-2.373936226,2.389751692,0
1.599588083,0.2374691686,0.3692366119,-2.373159131,2.4134232,0
1.609626083,0.3135927536,0.5039702015,-2.342608014,2.416637889,0
1.619664083,0.3493699658,0.695841613,-2.31124121,2.438870815,0
1.629701083,0.4799159257,0.8110251832,-2.304308751,2.489562203,0
1.639739083,0.5412893245,0.8349781559,-2.254501584,2.464337648,0
1.649777083,0.4494503242,0.8693644617,-2.193570673,2.401989271,0
1.659815083,0.3579530936,0.8859462883,-2.070596126,2.280438458,0
1.669853083,0.296048183,0.8902356595,-1.857563934,2.081035277,0
1.679891083,0.2344464505,0.8693380031,-1.624704418,1.857519353,0
1.689929083,0.1743399972,0.8385225919,-1.393028378,1.635250022,0
1.699966083,0.2052165118,0.7880289611,-1.096651143,1.365923566,0
1.710004083,0.2110140261,0.6582394847,-0.8194381571,1.072047122,0
1.720042083,0.2289404199,0.4944974197,-0.5279117721,0.7587043252,0
1.730080083,0.2302770934,0.2996689251,-0.1389356911,0.4026563431,0
1.740118083,0.2166416788,0.08663424745,0.3667666018,0.4346916724,0
1.750156083,0.1751466206,-0.1083392581,0.940790686,0.9630684547,0
1.760194083,0.1068768695,-0.2147794868,1.535173606,1.553805294,0
1.770231083,0.0964907527,-0.172128434,2.032448307,2.042005089,0
1.780269083,0.2009416124,-0.006514529139,2.394652911,2.403077721,0
1.790307083,0.3611746171,0.2536625938,2.629472998,2.666255814,0
1.800345083,0.5403271651,0.4253429849,2.725101871,2.810524917,0
1.810383083,0.6719447735,0.5315816309,2.662809144,2.797256039,0
1.820421083,0.7091909525,0.6606771889,2.368773719,2.559401314,0
1.830458083,0.8058354869,0.7003970325,2.013947132,2.279453857,0
1.840496083,1.110716328,0.5844957896,1.909394823,2.284975859,0
1.850534083,1.497333642,0.4778559516,2.09472817,2.61882425,0
1.860572083,1.798097166,0.364765977,2.490011643,3.092954189,0
1.870610083,1.904550405,0.5870976544,3.012794822,3.61233007,0
1.880648083,1.920706261,0.9534374095,3.592100696,4.18346063,0
1.890686083,1.613628037,1.139140008,4.094564216,4.546085296,0
1.900723083,0.8908776838,1.125271071,4.302107627,4.53519879,0
1.910761083,-0.02369350255,0.9590334141,4.215449553,4.323230436,0
1.920799083,-0.7724338523,0.6509518806,3.844656558,3.975144835,0
1.930837083,-1.074755074,0.1793112634,3.303254675,3.478324661,0
1.940875083,-1.072969042,-0.2075276969,2.658679841,2.87452758,0
1.950913083,-0.9490411073,-0.4591941974,1.913587276,2.184800814,0
1.960951083,-0.8117595935,-0.6032696642,1.120377975,1.509349108,0
1.970988083,-0.6927307481,-0.6629823806,0.2489247411,0.9906488041,0
1.981026083,-0.6468192878,-0.6427276987,-0.5889017397,1.085485764,0
1.991064083,-0.5550074771,-0.5522109731,-1.302389519,1.519601499,0
2.001102083,-0.3665093243,-0.3987640277,-1.826416401,1.905029843,0
2.011140083,-0.2630641857,-0.1892028154,-2.193395256,2.217201665,0
2.021178083,-0.2658983311,0.0512679483,-2.451581987,2.466492361,0
2.031215083,-0.4087575039,0.3381401689,-2.597174733,2.650799514,0
2.041253083,-0.6355537498,0.6089140546,-2.680496972,2.821306242,0
2.051291083,-0.966565505,0.7558158461,-2.696379763,2.962426421,0
2.061329083,-1.160862049,0.7387353983,-2.560621449,2.906907789,0
2.071367083,-1.31565802,0.6867483886,-2.328846007,2.761539987,0
2.081403958,-1.442626508,0.6391383854,-2.05920692,2.594224789,0
2.091441958,-1.474211705,0.5750790681,-1.798471972,2.395520303,0
2.101478958,-1.436727544,0.5178598237,-1.605489882,2.21584354,0
2.111516958,-1.425659057,0.4653510962,-1.471245412,2.10086136,0
2.121554958,-1.599428074,0.5285689261,-1.427970754,2.208315138,0
2.131592958,-1.862339062,0.7527441575,-1.366218309,2.429296816,0
2.141630958,-1.908315134,0.9264758981,-1.181735147,2.428275561,0
2.151668958,-1.661474048,0.9407891511,-0.9456561542,2.130691391,0
2.161705958,-1.225227907,0.857852829,-0.597557373,1.61064264,0
2.171743958,-0.940772852,0.9862224553,-0.2677252936,1.389015883,0
2.181781958,-0.7308417302,1.188104446,0.0051028651,1.394900659,0
2.191819958,-0.601398409,1.262174124,0.2082047313,1.41354617,0
2.201857958,-0.6991571304,1.236065575,0.332441107,1.458490963,0
2.211895958,-1.045992036,1.2494193,0.4859235013,1.700373363,0
2.221933958,-1.436386651,1.299900651,0.6432755828,2.041262303,0
2.231970958,-1.639480332,1.359112773,0.7876328123,2.270561326,0
2.242008958,-1.656358612,1.399613805,0.9318584794,2.360254833,0
2.252046958,-1.588891684,1.426716819,1.00064454,2.358259349,0
2.262084958,-1.618925614,1.515320847,0.9518770069,2.413128105,0
2.272122958,-1.692425115,1.608255615,0.8257204056,2.476409312,0
2.282160958,-1.594795617,1.65152121,0.5743755019,2.366601484,0
2.292197958,-1.523840532,1.635955776,0.2462209886,2.249236769,0
2.302235958,-1.489411249,1.67936419,-0.2237472153,2.255808673,0
2.312273958,-1.563920272,1.667089714,-0.7523185533,2.406453394,0
2.322311958,-1.723422667,1.526314635,-1.233188891,2.611623422,0
2.332349958,-1.971348119,1.425906979,-1.529647402,2.873890272,0
2.342387958,-2.113683966,1.260367772,-1.586533794,2.928015763,0
2.352425958,-2.119209585,1.116837559,-1.335853719,2.742787005,0
2.362462958,-2.263038811,1.058531097,-1.023116559,2.699740772,0
2.372500958,-2.580820656,0.9962443636,-0.785978635,2.875917333,0
2.382538958,-3.055458154,0.9428985342,-0.701513266,3.273683405,0
2.392576958,-3.457818511,0.8558269881,-0.6830571145,3.62705331,0
2.402614958,-3.432343947,0.7282815269,-0.7466876847,3.587327898,0
2.412652958,-3.316157141,0.4619355183,-0.8060299069,3.443830254,0
2.422689958,-3.503521811,-0.08456941288,-0.9288342994,3.625541369,0
2.432727958,-3.516322535,-0.626520094,-0.9148185235,3.686996682,0
2.442765958,-3.000808907,-0.8554777631,-0.5058677691,3.161107163,0
2.452803958,-2.355169587,-0.8494788853,0.3383690143,2.526446467,0
2.462841958,-1.839219464,-0.8149952234,1.708851698,2.639530181,0
2.472879958,-1.580659389,-0.8205324635,3.554507192,3.975711132,0
2.482917958,-1.469204149,-0.9240210908,5.621119611,5.882972164,0
2.492954958,-1.377734985,-0.9020224037,7.534444347,7.712305085,0
2.502992958,-0.9615500557,-0.9357441004,9.028245394,9.127398886,0
2.513030958,-0.4003547627,-1.161611662,9.662413938,9.74021913,0
2.523068958,0.1819016165,-1.459798611,9.215277357,9.33195783,0
2.533106958,0.7464543808,-1.776118944,8.008043087,8.236537302,0
2.543144958,1.066953135,-1.819206199,6.510786336,6.843846791,0
2.553181958,1.204499527,-1.488618513,4.846523166,5.211102665,0
2.563219958,1.373755955,-1.018347277,3.340886185,3.753099666,0
2.573257958,1.457243962,-0.500148169,2.147413337,2.642932499,0
2.583295958,1.374806407,-0.1719438082,1.244988572,1.862700694,0
2.593333958,1.403583772,-0.07952110961,0.7215388101,1.580186465,0
2.603371958,1.369822825,-0.0001264460385,0.5879235005,1.490660468,0
2.613408958,1.047002435,-0.002161715627,0.6205468708,1.217085531,0
2.623446958,0.5803852701,-0.0998536326,0.5652287024,0.8162728072,0
2.633484958,0.1365772167,-0.282640956,0.4407824117,0.5411361941,0
2.643522958,-0.2421700376,-0.3729604112,0.2744735652,0.5225720366,0
2.653560958,-0.4937997007,-0.4732126777,0.1002183527,0.6912395395,0
2.663598958,-0.6007429361,-0.5577118143,-0.1163286012,0.8279292764,0
2.673636958,-0.5733820599,-0.6456882901,-0.4926992548,0.994199633,0
2.683673958,-0.3652308306,-0.7171399498,-0.8122221082,1.143410696,0
2.693711958,0.07836467654,-0.6879686294,-0.9782958966,1.198542748,0
2.703749958,0.5329634741,-0.5518464723,-1.058904442,1.30761738,0
2.713787958,0.9459023219,-0.5682141446,-1.103904029,1.560833951,0
2.723825958,1.240578894,-0.78770064,-1.247821548,1.927839959,0
2.733863958,1.318871358,-0.9361126211,-1.437573051,2.163872634,0
2.743900958,1.194576218,-1.047462903,-1.677963197,2.310790203,0
2.753938958,0.9674206603,-1.036660026,-1.944538928,2.406615546,0
2.763976958,0.7401282781,-1.029288587,-2.227250635,2.562785644,0
2.774014958,0.7144940847,-1.082915449,-2.417693864,2.743802341,0
2.784052958,0.8194957522,-1.090842811,-2.504184709,2.851745497,0
2.794090958,0.9056685081,-1.017143774,-2.516108935,2.861052443,0
2.804127958,1.046129738,-0.9817983788,-2.500227313,2.882612028,0
2.814165958,1.31692482,-1.049960249,-2.407744827,2.938357135,0
2.824203958,1.683396429,-1.153598784,-2.288672712,3.066371875,0
2.834241958,1.975445263,-1.29540195,-2.186455196,3.2188564,0
2.844279958,2.100288287,-1.393203356,-2.119976447,3.293406537,0
2.854317958,2.014100036,-1.49404239,-2.105415126,3.274375433,0
2.864355958,1.914727191,-1.692867311,-2.239376591,3.398056424,0
2.874392958,1.765878423,-1.929172445,-2.540755534,3.646295601,0
2.884430958,1.596686022,-2.116803309,-2.883100655,3.916954415,0
2.894468958,1.406324362,-2.331915503,-3.169922955,4.178993858,0
2.904506958,1.222091168,-2.430773939,-3.348896286,4.31477405,0
2.914544958,1.189974459,-2.453494027,-3.381561171,4.344033622,0
2.924582958,1.641209353,-2.456428159,-3.144878161,4.314842534,0
2.934619958,2.341396763,-2.460869412,-2.604326463,4.280249221,0
2.944657958,2.677287143,-2.465914975,-1.758652434,4.042457358,0
2.954695958,2.350475442,-2.391446882,-0.7951786441,3.446166286,0
2.964733958,1.914491256,-2.094722177,0.3260039073,2.856469204,0
2.974771958,1.58139146,-1.397795759,1.897755355,2.838328262,0
2.984809958,1.256908998,-0.5809129813,3.581780945,3.840108704,0
2.994846958,0.8492779604,-0.01141873509,4.875958634,4.94938138,0
3.004884958,0.6030514169,0.1590922129,5.542633604,5.577613165,0
3.014922958,0.4403251594,0.06691582829,5.556983256,5.574802856,0
3.024960958,0.3509042752,-0.2394923052,4.941604155,4.95983286,0
3.034998958,0.4645036885,-0.7339989343,3.815153262,3.912788331,0
3.045036958,0.5509287518,-1.037074155,2.524052378,2.783861652,0
3.055073958,0.7264770761,-1.188456522,1.301823508,1.906552463,0
3.065111958,0.9045464274,-1.151070594,0.1192551327,1.46880548,0
3.075153,0.9291842553,-0.9665204814,-0.928709169,1.630964727,0
3.085191,0.8714403695,-0.6898583034,-1.836420402,2.146567653,0
3.095229,0.7722388476,-0.2998335242,-2.502580233,2.636126097,0
3.105267,0.6651105478,0.1139622331,-2.909692038,2.986915999,0
3.115305,0.5215929785,0.5211021048,-3.102336159,3.188745252,0
3.125342,0.2841413516,0.919897415,-3.108235999,3.253932788,0
3.13538,0.06327447474,1.274992682,-2.939173114,3.204426406,0
3.145418,-0.17898561,1.591737523,-2.644264115,3.09156868,0
3.155456,-0.4245520028,1.808155546,-2.286720327,2.945973648,0
3.165494,-0.5897490013,1.917937605,-1.939436647,2.790645633,0
3.175532,-0.6914186329,1.947247943,-1.642163034,2.639419199,0
3.185569,-0.747884025,1.969872282,-1.390184292,2.524349359,0
3.195607,-0.8296856949,1.919579503,-1.283348646,2.453598901,0
3.205645,-0.9248976615,1.798997345,-1.331011055,2.421449475,0
3.215683,-1.115637637,1.661491005,-1.466260076,2.48095109,0
3.225721,-1.390616694,1.541457901,-1.674099357,2.666930052,0
3.235759,-1.75036956,1.461440509,-1.918537529,2.979998022,0
3.245796,-2.002920745,1.410965881,-2.047891973,3.19317675,0
3.255834,-2.222912586,1.345594595,-2.029494878,3.297091846,0
3.265872,-2.396102436,1.309850858,-1.952782917,3.357138257,0
3.27591,-2.525986052,1.315534936,-1.705064456,3.319409963,0
3.285948,-2.645142075,1.369950002,-1.311463228,3.254761958,0
3.295986,-2.796979062,1.39132713,-0.7635685962,3.215885579,0
3.306023,-2.950460579,1.379733271,-0.1225225568,3.259431439,0
3.316061,-3.025005562,1.311004221,0.6622457045,3.362731047,0
3.326099,-3.053880575,1.223168225,1.474637382,3.605118928,0
3.336137,-3.08831132,1.158452996,2.186666281,3.957422087,0
3.346175,-2.927478975,0.9816861123,2.705641168,4.105403136,0
3.356213,-2.673793431,0.7464330384,3.007584368,4.092908174,0
3.366251,-2.243143367,0.4828192145,3.063720562,3.827687323,0
3.376288,-1.723486694,0.2604697761,2.879249094,3.365757899,0
3.386326,-1.105797942,0.07455492318,2.543759249,2.774717759,0
3.396364,-0.5224379012,-0.1280753651,2.259718469,2.322858631,0
3.406402,-0.0813014406,-0.2658044833,2.115367087,2.133550998,0
3.41644,0.1203509009,-0.3253969663,2.197771897,2.224987379,0
3.426478,0.2142758954,-0.4614830169,2.420657233,2.473552541,0
3.436515,0.293937192,-0.5818002963,2.653522012,2.732410973,0
3.446553,0.4750792551,-0.5961940947,2.851142113,2.951297858,0
3.456591,0.8587440178,-0.596101124,3.002614235,3.179382028,0
3.466629,1.23886069,-0.5902094695,3.041846128,3.337057221,0
3.476667,1.647944176,-0.6652269074,2.944539104,3.439266983,0
3.486705,1.738015563,-0.8460903507,2.717418045,3.334805514,0
3.496742,1.157597256,-1.043590877,2.833170111,3.233568649,0
3.50678,0.102209622,-1.196074859,3.324779445,3.534855051,0
3.516818,-0.8188782862,-1.270344146,3.985297882,4.262268774,0
3.526856,-1.291218705,-1.492818714,4.951688848,5.330569942,0
3.536894,-1.446357762,-1.558134744,5.935098134,6.304373444,0
3.546932,-1.299681673,-1.199429114,6.261024274,6.506014725,0
3.556969,-0.7101779625,-1.217126297,5.813108844,5.981470019,0
3.567007,0.1091182534,-1.262447481,4.878727875,5.040601761,0
3.577045,0.4847164898,-0.857382786,3.966254085,4.086713446,0
3.587083,0.8654160563,-0.3512331811,3.179835155,3.314160725,0
3.597121,1.007745691,-0.0426165542,2.048459153,2.283320487,0
3.607159,1.44705168,-0.1573690385,0.9232028461,1.723666753,0
3.617196,1.578730831,-0.3461610138,0.1148954487,1.620314614,0
3.627234,1.232246904,-0.3251814964,0.159661147,1.284393678,0
3.637272,0.6649699954,0.1320886016,0.9509958315,1.16791505,0
3.64731,0.4165132508,0.8754296324,1.530289426,1.811531412,0
3.657348,0.800579571,1.266130203,1.52913811,2.140625306,0
3.667386,1.502311961,1.283414134,1.110309654,2.266468751,0
3.677423,1.553708695,1.139915569,0.3698527622,1.962195015,0
3.687461,2.016621063,0.9096824755,-0.4007868719,2.248313331,0
3.697499,2.013234941,1.308815316,0.4341382205,2.440202544,0
3.707537,1.779971382,1.273796926,1.365844672,2.579997752,0
3.717575,2.262925082,-1.448827334,0.5749713331,2.747821429,0
3.727613,2.573918602,-3.617199284,0.225043543,4.445203284,0
3.73765,2.268434329,-4.966751275,-0.5120003289,5.484209776,0
3.747688,0.6894396427,-4.419097256,-8.514164041,9.617418411,0
3.757726,-1.766037175,-0.9595127396,-10.56807514,10.75749804,0
3.767764,-1.534698666,-0.5981646795,-6.634104114,6.835527659,0
3.777802,-1.071646768,-0.3467411307,-6.692364017,6.786486008,0
3.78784,-1.407100433,0.07741910867,-6.996665398,7.137173954,0
3.797877,-2.213960206,0.1326492034,-5.992148248,6.389448821,0
3.807915,-3.603387576,-0.02924616471,-2.842571265,4.589713363,0
3.817953,-4.583132998,-0.6008228968,2.724672686,5.365625544,0
3.827991,-3.614728836,-2.34147877,0.4241301262,4.327663775,0
3.838029,-2.008064102,-3.258238716,1.855363626,4.25332989,0
3.848067,-0.4091751413,-4.416697267,0.6935832721,4.489509639,0
3.858105,1.025067336,-4.099049615,0.1369909072,4.227497759,0
3.868142,1.769173037,-2.5750056,-0.405566386,3.150414444,0
3.87818,1.958312775,-2.239331275,-1.125742795,3.180705947,0
3.888218,2.109296654,-2.58431466,-1.479805736,3.649334138,0
3.898256,2.1806704,-2.4694464,-1.530740247,3.632720003,0
3.908294,2.574648335,-2.233472803,-1.411579839,3.689142509,0
3.918332,2.942314531,-2.5546722,-1.187661885,4.073586332,0
3.928369,2.722508631,-3.421022276,-1.016827294,4.488806568,0
3.938407,1.886311185,-4.320787143,-1.065348074,4.833460244,0
3.948445,0.8862446424,-4.909701161,-1.26218231,5.146231557,0
3.958483,0.3296777129,-5.171639466,-1.917637058,5.525565495,0
3.968521,0.4087072179,-4.812050906,-2.698988206,5.532396664,0
3.978559,1.124510202,-4.044831893,-2.829851816,5.062928949,0
3.988596,2.135109041,-4.150516807,-2.794252798,5.4399751,0
3.998634,2.51030762,-5.083653488,-2.559178941,6.220496282,0
4.008672,2.050734012,-5.585677882,-2.407940708,6.418994146,0
4.01871,1.284666608,-5.443507512,-2.05256916,5.957783353,0
4.028748,0.5273118478,-5.477154729,-1.704461609,5.760422822,0
4.038786,0.07912627637,-5.653689187,-1.647807351,5.889459352,0
4.048823,0.05919077933,-5.353494304,-1.067588727,5.459226182,0
4.058861,0.4232530439,-4.773787896,0.1652218491,4.795361537,0
4.068899,1.109788082,-4.271849456,1.413845635,4.634575152,0
4.07893525,1.955902407,-4.002943609,2.016836241,4.890474434,0
4.08897325,2.351080629,-3.484909539,1.994470056,4.652965229,0
4.09901125,2.328092886,-2.596801096,1.2262921,3.69691557,0
4.10904825,2.497123611,-1.517158334,0.4153341597,2.951253666,0
4.11908625,3.01908935,0.05217528999,0.1778290308,3.024772045,0
4.12912425,3.226864311,1.886495518,0.3985087967,3.759032838,0
4.13916225,3.720589752,3.152291261,0.1594956708,4.879053921,0
4.14920025,4.103809249,3.856342803,-0.03517567992,5.631506681,0
4.15923725,3.990973189,4.269683647,-0.2574710315,5.850158697,0
4.16927525,3.439638056,4.418267244,-0.5364399362,5.624941173,0
4.17931325,2.551128495,4.442312164,-0.791190843,5.183471512,0
4.18935125,1.487123526,4.457590939,-0.9590410155,4.79597884,0
4.19938925,0.2909153509,4.43069784,-1.036592052,4.559631364,0
4.20942725,-0.9156692934,4.522871301,-0.9551730824,4.71244848,0
4.21946425,-1.932319416,4.763527494,-0.6713340318,5.184181893,0
4.22950225,-2.726660739,4.941434001,-0.3289684457,5.653376779,0
4.23954025,-3.318073273,4.801093808,0.1101545262,5.837143653,0
4.24957825,-4.909423419,4.452930708,2.989362105,7.270991403,0
4.25961625,-4.800195091,4.620439403,3.883994286,7.712051919,0
4.26965425,-3.427390478,4.031958955,3.730675029,6.47469186,0
4.27969125,-2.975202488,3.623237996,4.451461887,6.464920445,0
4.28972925,-2.160758438,3.326286272,4.43114983,5.947112426,0
4.29976725,-1.751275586,3.173977122,4.256105828,5.590664877,0
4.30980525,-1.696114123,2.842915958,3.851770865,5.078888959,0
4.31984325,-1.89413359,2.542729847,3.311705655,4.58482404,0
4.32988125,-2.133582918,2.412839067,2.892481928,4.32902069,0
4.33991825,-2.10097592,2.364020664,2.520045866,4.043924416,0
4.34995625,-2.156828524,1.99140173,1.976138451,3.538744595,0
4.35999425,-2.221068959,1.687773947,1.384358711,3.114189663,0
4.37003225,-2.275349831,1.481858986,0.8382077193,2.841780267,0
4.38007025,-2.399378631,1.312341626,0.4599384749,2.773229481,0
4.39010825,-2.28572513,1.204778147,0.3805058044,2.611668896,0
4.40014525,-2.012350842,1.206352071,0.3243684411,2.368555703,0
4.41018325,-1.647207427,1.181074997,0.26480344,2.044101592,0
4.42022125,-1.274894156,1.089252661,0.3560890013,1.714242062,0
4.43025925,-0.9957855034,0.988580345,0.4057558358,1.460656587,0
4.44029725,-0.8345520401,0.9374703446,0.3707760376,1.308740855,0
4.45033525,-0.7004531658,0.9044242937,0.2807704318,1.177900665,0
4.46037225,-0.4579486674,0.8124185016,0.185699383,0.9509074953,0
4.47041025,-0.1909273785,0.7156154345,0.1897585201,0.7645698202,0
4.48044825,0.04542643368,0.5713991229,0.292425102,0.6434850106,0
4.49048625,0.1477562159,0.3236919548,0.4260638005,0.5551024617,0
4.50052425,0.2334652877,0.03216440497,0.6260327286,0.6689226911,0
4.51056225,0.3421515781,-0.2385974071,0.91916242,1.00938396,0
4.52059925,0.5638879359,-0.4530019595,1.229060172,1.426102831,0
4.53063725,0.9608507288,-0.521932921,1.339806436,1.72937254,0
4.54067525,1.311453872,-0.4985573974,1.163790042,1.822876299,0
4.55071325,1.505710363,-0.5196759323,0.7694257522,1.76896658,0
4.56075125,1.546985566,-0.613101465,0.1319266337,1.669270015,0
4.57078925,1.421341473,-0.8188215682,-0.6194236207,1.753386998,0
4.58082625,1.12623016,-1.126352586,-1.309866353,2.062235289,0
4.59086425,0.7302836135,-1.377124828,-1.568371173,2.21123836,0
4.60090225,0.4711426172,-1.597159062,-1.19474988,2.049468153,0
4.61094025,0.3430003014,-1.844059789,-0.1778114891,1.884097301,0
4.62097825,0.4500034708,-2.129153798,1.098955531,2.437929917,0
4.63101525,0.9135932395,-2.331597999,2.002173178,3.206197011,0
4.64105325,1.571236016,-2.394418291,2.123558452,3.565322155,0
4.65109125,2.314477644,-2.181249274,1.446942045,3.49403727,0
4.66112925,2.786439456,-1.789512138,0.3824739772,3.333599387,0
4.67116725,2.853560814,-1.344090545,-0.6113164562,3.212957597,0
4.68120525,2.60949394,-0.9466316159,-1.506367882,3.158277099,0
4.69124225,2.217918479,-0.5984772132,-2.149711878,3.146203825,0
4.70128025,1.881364733,-0.2757658364,-2.422928292,3.079961292,0
4.71131825,1.680818977,0.07411553233,-2.14122289,2.723138081,0
4.72135625,1.435857478,0.4747578775,-1.374202098,2.043407239,0
4.73139425,1.296916817,0.6987107686,-0.6290686029,1.601848081,0
4.74143225,1.099085339,0.6547534478,-0.2019715995,1.295176894,0
4.75146925,0.7929052466,0.5864551185,0.1526310396,0.9979602048,0
4.76150725,0.4987537542,0.4375421041,0.5776487732,0.8797025096,0
4.77154525,0.01989719778,0.3225721765,0.7555152261,0.8217371626,0
4.78158325,-0.2543755156,0.3561010612,0.5108601218,0.6726759493,0
4.79162125,-0.3855770946,0.4875442033,-0.03125746071,0.6223713319,0
4.80165925,-0.4619078171,0.5796038994,-0.7282058054,1.039029935,0
4.81169625,-0.504513554,0.6416868943,-1.42277141,1.640297071,0
4.82173425,-0.6023047274,0.6834582335,-2.008717382,2.20563634,0
4.83177225,-0.628273674,0.6333532964,-2.470131109,2.626292426,0
4.84181025,-0.6351792356,0.382902907,-2.72109302,2.820357162,0
4.85184825,-0.9443954945,0.01227819356,-2.746947654,2.904781406,0
4.86188625,-1.380559191,-0.4705809556,-2.769764659,3.13033327,0
4.87192325,-1.606332174,-0.9731435495,-2.672034296,3.266049403,0
4.88196125,-1.768784197,-1.3918392,-2.534269803,3.389444988,0
4.89199925,-1.929713312,-1.835831441,-2.418358693,3.597572698,0
4.90203725,-2.061981423,-2.257927175,-2.487392675,3.941715976,0
4.91207525,-2.182763264,-2.674580759,-2.619796441,4.333724852,0
4.92211225,-2.310555332,-3.135704464,-2.502818799,4.62983913,0
4.93215025,-2.374615672,-3.66970962,-2.027723172,4.818426044,0
4.94218825,-2.553336696,-4.079405602,-1.68983129,5.100647815,0
4.95222625,-2.450003824,-4.077461403,-1.610609704,5.022178197,0
4.96226425,-2.172620099,-4.03497758,-1.973269222,4.989500335,0
4.97230225,-2.010919736,-4.040395026,-2.795963693,5.309049173,0
4.98233925,-1.699551702,-3.816268326,-3.501106911,5.450699911,0
4.99237725,-1.203890832,-3.117860516,-3.50672667,4.844330632,0
5.00241525,-0.1629671627,-2.491956134,-2.581481391,3.591719622,0
5.01245325,0.4680374533,-2.477162386,-1.301239371,2.837008362,0
5.02249125,0.8068619657,-2.683233761,0.1198123723,2.804482956,0
5.03252925,1.594577808,-2.244350817,1.968060522,3.384235689,0
5.04256625,2.677747611,-1.166754435,3.465372237,4.532157645,0
5.05260425,3.594091088,-0.147254671,4.294316797,5.601815013,0
5.06264225,4.099221523,0.7271655858,4.474125695,6.111479986,0
5.07268025,4.385341573,1.419121285,4.277501959,6.288254841,0
5.082720583,4.69996329,1.810053699,3.963910521,6.40925393,0
5.092758583,5.47928487,2.228638033,4.078617105,7.18501967,0
5.102795583,6.019283422,2.515853412,4.151300919,7.732696206,0
5.112833583,5.166305051,2.449454624,3.957178037,6.953401603,0
5.122871583,3.492582547,2.090585418,3.907584878,5.642508291,0
5.132909583,1.931206691,1.710076982,4.352676687,5.059616281,0
5.142947583,0.8319289792,1.323760507,4.806737541,5.054619026,0
5.152985583,0.2974396741,0.8314404443,4.746726982,4.828165347,0
5.163022583,0.3197014859,0.3254320496,4.187194052,4.211972114,0
5.173060583,0.3079330873,-0.05710273862,3.038478132,3.054575726,0
5.183098583,0.2518234983,-0.1297731042,1.376186643,1.405042992,0
5.193136583,0.03941286474,0.04290160596,-0.2668423641,0.2731277521,0
5.203174583,-0.5757267934,-0.05381835759,-1.613149735,1.713653939,0
5.213211583,-1.01462377,-0.5585845113,-2.646429339,2.88878284,0
5.223249583,-1.365105584,-1.03284691,-3.392324141,3.79975645,0
5.233287583,-1.948400137,-1.218608859,-3.846523574,4.480738136,0
5.243325583,-2.851107907,-1.539694673,-4.349228584,5.423584171,0
5.253363583,-3.957166343,-2.130270032,-4.933101718,6.673283183,0
5.263401583,-4.703063191,-2.382024679,-5.06711113,7.312213082,0
5.273438583,-5.27796582,-1.854624685,-4.992419382,7.498053561,0
5.283476583,-5.757257409,-1.310178595,-5.025824525,7.753805065,0
5.293514583,-5.519538857,-1.0158454,-4.557994648,7.229976921,0
5.303552583,-4.831077746,-0.4483038314,-3.462369107,5.960561076,0
5.313590583,-4.462792622,-0.09294558585,-2.469450493,5.101307931,0
5.323628583,-3.265857638,0.4662280324,-0.9724714851,3.439316135,0
5.333665583,-1.822742595,0.8373522717,0.00709384203,2.005891253,0
5.343703583,-0.3134873575,0.9750692569,0.7595503896,1.275127905,0
5.353741583,0.6985791332,1.195723003,1.56885006,2.092619606,0
5.363779583,1.057637351,0.6094253205,1.965732161,2.313892589,0
5.373817583,1.693982813,1.222519184,2.655387858,3.378641088,0
5.383854583,2.685903307,3.072522376,3.486683584,5.367628223,0
5.393892583,4.177640871,3.71517406,2.648819681,6.186392103,0
5.403930583,4.790365337,3.508369445,1.111077978,6.040757444,0
5.413968583,4.559385116,4.007753821,-0.2228882593,6.074517471,0
5.424006583,4.280171213,4.279410783,-1.485605004,6.232194196,0
5.434044583,3.825519206,3.738147478,-2.407733425,5.865622218,0
5.444081583,3.030865642,3.176652808,-2.741521438,5.176215741,0
5.454119583,2.419636894,3.09296775,-2.760464078,4.800130636,0
5.464157583,1.826774835,2.990555522,-2.624598759,4.378247055,0
5.474195583,0.8417335904,2.440900586,-2.211821002,3.399803414,0
5.484233583,-0.2369835573,1.670093137,-1.757046204,2.435689564,0
5.494271583,-1.21016314,1.439177235,-1.226889393,2.245213469,0
5.504308583,-1.602763326,1.570268448,-0.4465875274,2.287801061,0
5.514346583,-1.961385925,1.74979244,0.2862273458,2.643999702,0
5.524384583,-2.472619684,1.33234422,0.7641416234,2.910824908,0
5.534422583,-3.176351384,0.6152452735,1.430379807,3.537473852,0
5.544460583,-3.984386301,0.0163013977,2.323155497,4.612228463,0
5.554497583,-3.678061783,-0.1991074871,2.57488544,4.494198182,0
5.564535583,-2.603267532,-0.1702386139,2.451148416,3.579680375,0
5.574573583,-1.636200628,-0.06431082062,2.536582669,3.019195259,0
5.584611583,-0.1304180521,0.213331771,1.830604469,1.847601698,0
5.594649583,1.216260617,0.474746512,1.30270059,1.844370615,0
5.604687583,2.317786583,0.5852334159,0.283131976,2.407238358,0
5.614724583,3.542451403,0.9896424186,-1.883756682,4.132419787,0
5.624762583,5.20854826,1.652928928,-7.285706717,9.107286719,0
5.634800583,7.230863342,1.680482177,-12.72754076,14.73430347,0
5.644838583,7.312791604,0.6430959271,-11.57765773,13.70885305,0
5.654876583,3.841378609,-0.291202705,-4.137596215,5.653378731,0
5.664913583,0.5720605892,-1.540258929,2.720769669,3.178401875,0
5.674951583,-0.7689076889,-3.825454302,5.67711898,6.888758927,0
5.684989583,-1.032044672,-5.076514623,6.869645748,8.603961275,0
5.695027583,0.3178277457,-4.559049778,6.271990142,7.760400099,0
5.705065583,1.435656334,-3.639105878,2.961806517,4.906780874,0
5.715103583,1.448551784,-2.900863327,-1.568241803,3.601762438,0
5.725140583,0.9353135991,-1.853926966,-3.833166779,4.35947523,0
5.735178583,-0.7886122209,-0.3407847914,-0.3921270724,0.944355415,0
5.745216583,-1.479886428,0.3049016715,3.710437231,4.006291716,0
5.755254583,-0.4286523628,-0.8601672301,2.957218791,3.109465146,0
5.765292583,-0.824642179,-1.851364716,1.943392289,2.807910188,0
5.775329583,-1.562067874,-1.520474875,2.363259795,3.215104469,0
5.785367583,-1.528229452,-0.688212166,3.109792528,3.532694554,0
5.795405583,-1.213883724,-0.07204237461,3.065755978,3.298115145,0
5.805443583,-0.9425705785,0.1117797598,1.833531293,2.064647915,0
5.815481583,-0.610544039,0.01901485294,-0.2583695293,0.6632348015,0
5.825519583,-0.2081591231,-0.01695195526,-0.6345969991,0.6680800406,0
5.835556583,-1.469331619,0.5419737045,-0.6800158314,1.707364177,0
5.845594583,-2.363255117,1.175331715,0.3586250849,2.663642495,0
5.855632583,-2.230481806,1.292497492,1.305210946,2.889493808,0
5.865670583,-1.407979124,1.012350519,1.220090543,2.120348962,0
5.875708583,-1.058394565,0.1924435616,1.15535368,1.578630959,0
5.885745583,-1.257788712,-0.9311952589,0.5409058933,1.655818903,0
5.895783583,-1.058258325,-1.493390426,-0.2224117112,1.843798421,0
5.905821583,-0.8981820256,-1.298884551,-0.7408749676,1.744341637,0
5.915859583,-1.297701806,-1.132842338,-0.8873078855,1.937698899,0
5.925897583,-1.574389712,-0.5446484402,-0.586943361,1.766308975,0
5.935935583,-1.293445033,0.4202394255,-0.3834743627,1.413030012,0
5.945972583,-1.238499332,0.4495192117,-0.5334482814,1.421448271,0
5.956010583,-0.9323502302,0.09323728882,-1.115729292,1.456990733,0
5.966048583,-0.569725796,-0.09713756438,-1.59222255,1.693870077,0
5.976086583,-0.409606812,-0.1476512584,-1.488953559,1.551309555,0
5.986124583,-0.7729434371,-0.1273535264,-1.456480608,1.653782404,0
5.996161583,-1.103600559,-0.1452240792,-1.796946434,2.113774045,0
6.006199583,-0.9652092433,0.08556566879,-1.091592132,1.459631374,0
6.016237583,-0.4033918065,0.7106087561,0.282708199,0.8646465634,0
6.026275583,-0.1668725181,0.9002028964,0.5374129494,1.06161404,0
6.036313583,-0.01449817121,0.8943776809,-0.3474181652,0.9595941926,0
6.046351583,0.5427023041,1.363856327,-1.263734161,1.936918661,0
6.056388583,1.555492095,1.978922602,-1.9355348,3.175214211,0
6.066426583,2.13879688,2.127374052,-2.188430386,3.726848535,0
6.076464583,2.09096958,1.935396367,-1.845302907,3.394562667,0
6.086498833,2.476705134,1.616337929,-0.9876122653,3.118011323,0
6.096536833,3.031210628,1.427699297,0.1478597116,3.353867267,0
6.106573833,2.912167749,1.379820687,0.9204546547,3.351397156,0
6.116611833,2.576995407,1.55763393,1.123106285,3.213797834,0
6.126649833,2.902756655,1.633653143,0.5002292991,3.368241105,0
6.136687833,3.824298892,1.698886435,-0.6804475021,4.23963276,0
6.146725833,4.801631168,1.282564095,-1.423199426,5.169732018,0
6.156763833,3.915713092,0.6464259895,-0.9022516876,4.069979568,0
6.166800833,2.810953615,0.6193864909,-0.4010119897,2.906184865,0
6.176838833,2.024807165,0.9770062201,-0.7081615502,2.357091002,0
6.186876833,1.666897341,1.072627053,-1.655482407,2.582575757,0
6.196914833,2.016450909,0.4310953295,-2.33739756,3.116944787,0
6.206952833,1.798593594,-0.5402599952,-2.770789676,3.347251889,0
6.216990833,1.460640317,-1.093985543,-3.280555784,3.753973995,0
6.227027833,1.923858495,-1.148414716,-3.643872528,4.27760387,0
6.237065833,2.726359608,-1.106662965,-3.876566568,4.866775933,0
6.247103833,3.32600853,-1.275860701,-4.088021182,5.422367606,0
6.257141833,3.343016326,-1.75822354,-4.299576952,5.723064751,0
6.267179833,2.561357614,-2.594873269,-4.729943134,5.972125431,0
6.277216833,1.046790181,-3.435493842,-5.251777895,6.362354806,0
6.287254833,0.01897421479,-3.681188289,-5.285069017,6.440765619,0
6.297292833,0.04106382608,-3.388339264,-4.818160661,5.890433037,0
6.307330833,0.8142160088,-3.080985051,-4.124368059,5.21208485,0
6.317368833,1.821810549,-2.970019808,-3.367383428,4.845542538,0
6.327405833,2.223929417,-2.930954268,-2.794449849,4.620097935,0
6.337443833,2.034115933,-2.893022503,-2.548885503,4.359360519,0
6.347481833,1.572164261,-2.914840803,-2.389589368,4.083887207,0
6.357519833,0.830518046,-2.922367924,-2.325824458,3.826153933,0
6.367557833,-0.1887089449,-2.988142668,-2.369025149,3.817969071,0
6.377595833,-1.99121842,-3.649120404,-1.418903184,4.392529654,0
6.387632833,-2.985485401,-3.986455338,-0.1936287922,4.984219232,0
6.397670833,-3.19699264,-3.43406449,0.6313902399,4.734154042,0
6.407708833,-3.533351381,-2.939679776,1.698199241,4.900017329,0
6.417746833,-3.513817588,-2.214325365,2.415522793,4.804674935,0
6.427784833,-3.757243023,-1.768330745,2.979266303,5.110762806,0
6.437821833,-3.473256623,-1.443038736,3.35553346,5.040384625,0
6.447859833,-1.846731382,-0.4434705229,3.416572545,3.908970562,0
6.457897833,-0.5111203229,0.2415816616,2.438897038,2.503562351,0
6.467935833,-0.4415858191,0.6161285685,1.012803825,1.265062858,0
6.477973833,-1.027385611,0.7898781431,-0.4741144645,1.379932317,0
6.488011833,-1.60269199,0.7286246122,-1.527765768,2.331004865,0
6.498048833,-2.18353919,0.528586687,-2.2384118,3.171393174,0
6.508086833,-2.62880203,0.2816809163,-2.797855268,3.849407533,0
6.518124833,-2.93363317,-0.08095440835,-3.050732726,4.233169895,0
6.528162833,-3.002400227,-0.2464208172,-2.885649456,4.171582808,0
6.538200833,-2.819332091,-0.3065628655,-2.39903423,3.714563159,0
6.548237833,-2.529885853,-0.2898307655,-1.909917564,3.183097454,0
6.558275833,-2.371026651,-0.2843251369,-1.543495363,2.843410997,0
6.568313833,-2.136587802,-0.2024307155,-1.306253359,2.512425813,0
6.578351833,-1.922139122,-0.1283140046,-1.343790729,2.348799014,0
6.588389833,-1.719728396,0.01827340772,-1.447677625,2.24801472,0
6.598427833,-1.588783218,0.3736356915,-1.693240802,2.351786588,0
6.608464833,-1.237707327,0.8831725153,-2.008453088,2.519086526,0
6.618502833,-0.9926446715,1.214442791,-2.259192805,2.75030305,0
6.628540833,-0.9548658112,1.400220599,-2.109184826,2.70574335,0
6.638578833,-0.9731009379,1.415398948,-1.601376951,2.348337232,0
6.648616833,-0.9890962887,1.123631658,-1.066595285,1.838065579,0
6.658653833,-0.8048534471,0.7892460591,-0.453211838,1.214948305,0
6.668691833,-0.4467696682,0.4926918726,0.1577087617,0.6835352743,0
6.678729833,-0.01120121866,0.0938110834,0.7933736086,0.7989791421,0
6.688767833,0.4934146616,-0.2305361981,1.325972509,1.433460171,0
6.698805833,0.8604069659,-0.3507556097,1.698159479,1.935736362,0
6.708842833,1.225211242,-0.3030692272,2.067142176,2.421997176,0
6.718880833,1.393295303,-0.1735371745,2.090429882,2.518190629,0
6.728918833,1.229006377,-0.028602167,1.635240515,2.045797229,0
6.738956833,1.004091181,0.1039424443,0.7567168289,1.261595613,0
6.748994833,0.8053320417,0.3660488561,-0.1915360737,0.9051174122,0
6.759032833,0.4954722968,0.4904173058,-0.7500118268,1.023972495,0
6.769069833,0.2516194305,0.3734451453,-0.7400557727,0.8662887284,0
6.779107833,0.3267400718,0.06777112976,-0.3107637244,0.4559891369,0
6.789145833,0.4950379948,-0.3932517113,0.1478088409,0.6492741934,0
6.799183833,0.5003658316,-0.9034318019,0.5029178488,1.148686793,0
6.809221833,0.4586896558,-1.285519717,0.8028314799,1.58350735,0
6.819258833,0.2976884732,-1.70122459,1.086315604,2.040310056,0
6.829296833,0.1108825046,-2.07175826,1.239042538,2.416547875,0
6.839334833,-0.06369605899,-2.17014775,1.261763649,2.511104528,0
6.849372833,-0.06624953806,-2.046198473,1.170357635,2.358188751,0
6.859410833,0.2696838185,-1.934643977,0.9927180541,2.191133454,0
6.869448833,0.6224223652,-2.019214742,0.6546893477,2.212070505,0
6.879485833,0.5072009343,-2.211937508,0.1918196636,2.277436083,0
6.889523833,0.2619757265,-2.256350473,-0.3008333981,2.291342286,0
6.899561833,0.1348438096,-2.17068277,-0.9350580758,2.367357208,0
6.909599833,0.007780597508,-2.118808758,-1.810051214,2.786699928,0
6.919637833,-0.2902142698,-2.068104189,-2.588237849,3.325696081,0
6.929674833,-0.6986767817,-1.82942567,-3.257696679,3.800991341,0
6.939712833,-0.9551143178,-1.47402971,-3.789468783,4.176730851,0
6.949750833,-1.27078678,-1.320870082,-4.166515374,4.551861946,0
6.959788833,-1.879762596,-1.187133004,-4.40000522,4.92979088,0
6.969826833,-2.441443208,-1.047048116,-4.229177645,4.994286561,0
6.979863833,-1.958424311,-0.6148346528,-3.080848811,3.702036848,0
6.989901833,-0.2948408791,-0.5774308913,-0.8178330964,1.043651547,0
6.999939833,0.9450345951,-0.8575990599,1.676183889,2.106693847,0
7.009977833,1.080864245,-0.6392662201,4.07371246,4.262870163,0
7.020015833,0.9774386948,0.5543572667,5.212461217,5.332208766,0
7.030052833,1.225750648,2.531875075,4.000165597,4.890212762,0
7.040090833,1.747515242,3.594835146,1.682279027,4.336670609,0
7.050128833,1.942327511,3.338333291,-0.2535791248,3.870582345,0
7.060166833,1.810816029,3.041197087,-1.512097569,3.848944462,0
7.070204833,1.088996553,2.849891979,-2.042289755,3.671341066,0
7.080244583,0.1792154056,2.476191748,-1.903021358,3.128119886,0
7.090281583,-0.5543628216,2.07246782,-1.470924985,2.601165376,0
7.100319583,-0.8698902726,1.7704546,-1.023746304,2.222447991,0
7.110357583,-0.6519861799,1.369587037,-0.5744532698,1.621989886,0
7.120395583,-0.09273859441,0.9404654346,-0.1495238292,0.9567826588,0
7.130433583,0.3673466456,0.485699626,0.1628209823,0.6303636704,0
7.140470583,0.6578743261,0.06294907719,0.4433323824,0.795804509,0
7.150508583,0.7546363896,-0.416825419,0.6492251247,1.079218594,0
7.160546583,0.7426425809,-0.706701939,0.7832579255,1.290131238,0
7.170584583,0.6503986609,-0.9585320885,0.7610502005,1.386001295,0
7.180622583,0.4251001793,-1.243848511,0.499355725,1.406138479,0
7.190659583,0.2019821244,-1.311687761,0.1010884184,1.330992272,0
7.200697583,0.1817414027,-1.357172521,-0.4426687235,1.439063163,0
7.210735583,0.3249938008,-1.515486177,-0.8033144599,1.745747245,0
7.220773583,0.5958496937,-1.596455934,-0.806283676,1.885152984,0
7.230811583,1.036404941,-1.555027826,-0.368402068,1.904722244,0
7.240849583,1.46755962,-1.620385079,0.2822579634,2.204324976,0
7.250886583,1.461918519,-1.910379786,1.149817536,2.666240246,0
7.260924583,1.071144419,-2.19432701,2.255052391,3.323805452,0
7.270962583,0.6272232217,-2.395517422,3.177535445,4.028479141,0
7.281000583,0.2762949729,-2.475826005,3.570699887,4.353843245,0
7.291038583,0.2721454963,-2.286329148,3.387344652,4.095786608,0
7.301075583,0.7771560636,-1.771332559,2.841874276,3.437708537,0
7.311113583,1.641530658,-1.276032317,1.960150409,2.857458836,0
7.321151583,2.183478086,-0.8808641077,0.9265872145,2.530229633,0
7.331189583,2.388384403,-0.554602192,-0.2054173636,2.460520259,0
7.341227583,2.214772677,-0.2950014583,-1.300918359,2.585465615,0
7.351264583,1.754652354,-0.1993755819,-2.123742054,2.762034724,0
7.361302583,1.120038251,-0.298399056,-2.474380281,2.732413851,0
7.371340583,0.5474204224,-0.5619275837,-2.556421979,2.674083967,0
7.381378583,0.4172906381,-0.8164489143,-2.597916745,2.754975811,0
7.391416583,0.4544339061,-1.048822161,-2.468395071,2.720204464,0
7.401453583,0.3752672839,-1.30988638,-2.39568319,2.756070719,0
7.411491583,0.1809754175,-1.613882537,-2.654169883,3.111589098,0
7.421529583,-0.3454418063,-1.946982333,-2.949665358,3.551140095,0
7.431567583,-1.335161408,-2.179119864,-3.0890928,4.009203624,0
7.441605583,-2.316038851,-2.326415758,-3.331444101,4.677046722,0
7.451643583,-3.098085818,-2.433241903,-3.597426925,5.334817932,0
7.461680583,-3.704294731,-2.31519115,-3.626740186,5.677601069,0
7.471718583,-4.020420352,-1.909378304,-2.95512198,5.342494851,0
7.481756583,-3.898908779,-1.50918244,-2.033529457,4.64912501,0
7.491794583,-3.702389123,-1.41507165,-1.348686603,4.186773047,0
7.501832583,-3.419735888,-1.806539376,-1.638146582,4.200202648,0
7.511869583,-3.407763714,-2.229355048,-2.759181783,4.91893907,0
7.521907583,-3.471962049,-2.110733023,-2.93651614,5.01326654,0
7.531945583,-3.491100571,-1.771318818,-2.852441949,4.843736019,0
7.541983583,-3.170662628,-1.668009335,-2.176250051,4.191827874,0
7.552021583,-2.969464615,-1.803097266,-0.3390893912,3.49053885,0
7.562058583,-2.449399806,-1.433679975,1.728788365,3.32320732,0
7.572096583,-2.027719079,-0.8370919244,2.668783537,3.454674097,0
7.582134583,-1.645067346,-0.7664343166,2.702415552,3.255260043,0
7.592172583,-1.306567354,-0.8782618774,2.757704192,3.175436125,0
7.602210583,-1.129729427,-0.7635380445,2.894254219,3.199372815,0
7.612247583,-0.6400835878,-0.5200934601,2.668500239,2.793044528,0
7.622285583,-0.256474666,-0.005161191076,2.318120752,2.332271363,0
7.632323583,0.0480190891,0.602028885,1.867973147,1.963178109,0
7.642361583,0.9643298221,1.196067696,1.35286093,2.047130342,0
7.652399583,1.035172933,1.649623643,0.6012738633,2.03822752,0
7.662436583,0.7138076216,2.294564513,-0.3909787524,2.434627694,0
7.672474583,1.156305606,2.915239584,-0.8241428268,3.242664935,0
7.682512583,2.26022133,2.699658297,-0.3707301369,3.540366678,0
7.692550583,2.378539739,2.547403818,0.4461887473,3.513659332,0
7.702588583,2.599490815,2.294893272,1.02125539,3.614809843,0
7.712626583,3.194268422,2.144377171,1.369330782,4.083720239,0
7.722663583,3.606669618,1.97796132,1.575716152,4.404915222,0
7.732701583,3.721822929,1.739647229,1.571950253,4.398791425,0
7.742739583,3.632240077,1.428369388,1.157593456,4.071047739,0
7.752777583,3.323755013,1.011794595,0.7565577847,3.555763683,0
7.762815583,3.382366918,0.5406348749,0.5901828647,3.475774424,0
7.772852583,2.888031027,0.1369265878,0.5297077444,2.939398306,0
7.782890583,2.220486576,-0.3792900221,0.6765181732,2.352041325,0
7.792928583,1.240749925,-1.107804561,1.181725792,2.040384074,0
7.802966583,0.8327715629,-1.831898165,1.955788971,2.806148582,0
7.813004583,1.205264928,-2.425519924,2.680795764,3.810836703,0
7.823041583,1.731528955,-2.530214174,3.386935055,4.568534267,0
7.833079583,1.557125807,-2.415333197,3.927187083,4.866340886,0
7.843117583,1.20634257,-2.92133209,4.227517036,5.278384589,0
7.853155583,1.588465714,-3.773608795,4.064205472,5.768978487,0
7.863193583,1.709105467,-4.439473341,3.227064285,5.748383159,0
7.873230583,1.948141982,-4.124030382,1.486948695,4.7972805,0
7.883268583,2.130934129,-2.854259264,-0.6773584181,3.625808963,0
7.893306583,1.715773047,-1.534756699,-2.044736523,3.079010023,0
7.903344583,2.192711132,0.08538155459,-2.877520365,3.61875608,0
7.913382583,3.160204298,1.89441411,-4.896349922,6.127800468,0
7.923419583,2.439484683,3.788124215,-8.205210614,9.36090016,0
7.933457583,1.419245539,4.453168105,-9.402672433,10.50024823,0
7.943495583,1.078657506,4.044498894,-6.612365921,7.825909301,0
7.953533583,0.1848620617,3.119933354,-3.063070936,4.376135473,0
7.963571583,-1.449257542,2.055265019,-1.312195884,2.836603561,0
7.973608583,-3.247735362,1.444474082,-0.5038826394,3.590012266,0
7.983646583,-4.349355469,1.273325348,-0.3363727748,4.544380825,0
7.993684583,-4.653827004,1.25051156,-0.1721879295,4.821984408,0
8.003722583,-4.798553778,1.38487005,-0.100803659,4.995412375,0
8.013760583,-4.633973953,1.44496554,-0.6179767272,4.893213182,0
8.023798583,-4.349846635,1.546642919,-0.6037931362,4.655946329,0
8.033835583,-3.720020233,1.503528913,-1.016027687,4.139017031,0
8.043873583,-3.142608272,1.190543393,-1.82443361,3.823864317,0
8.053911583,-2.312476727,0.7708418016,-2.35428198,3.388862543,0
8.063949583,-1.336250744,0.4865643561,-2.543669786,2.914200904,0
8.073987583,-0.4856036586,0.2796937401,-2.779509336,2.835438529,0
8.084023708,-0.01236510694,0.1390315124,-2.668181566,2.671829996,0
8.094061708,0.1436479622,0.2612559342,-1.577252801,1.605184039,0
8.104099708,0.5540815705,0.605295359,-0.4103306973,0.9174748713,0
8.114137708,0.6279529542,0.8994371304,0.2673978496,1.12907647,0
8.124175708,0.01556236446,1.035247996,0.7263338193,1.264729781,0
8.134212708,-0.08317956626,1.005154278,0.5604608828,1.153850234,0
8.144250708,0.654848392,1.101358371,0.1961357859,1.296258432,0
8.154288708,1.41929524,1.187337803,-0.2579589817,1.868344956,0
8.164326708,2.074716074,1.106204397,-0.3771597353,2.3812569,0
8.174364708,2.902311097,0.954325967,0.421695638,3.084148986,0
8.184401708,3.276273867,0.8090485319,0.9416021334,3.503590239,0
8.194439708,3.164006158,0.7299400165,1.004799571,3.399024797,0
8.204477708,3.347097682,0.8835460062,1.153120482,3.648753662,0
8.214515708,3.823927594,1.222774854,1.178710967,4.184131945,0
8.224553708,4.020310425,1.335725811,1.029643075,4.359727539,0
8.234590708,4.59744055,1.113928496,0.8591856287,4.807857761,0
8.244628708,5.299520411,0.881230655,1.337080318,5.536178089,0
8.254666708,5.932296149,0.5055422619,1.920991898,6.256030726,0
8.264704708,6.300611093,0.2270461047,2.462840216,6.768665453,0
8.274742708,5.337622038,-0.1405994067,2.487018453,5.890266377,0
8.284779708,4.160479878,-0.1700043599,1.887364999,4.571721879,0
8.294817708,2.421339603,-0.4284607934,0.5425631404,2.518102239,0
8.304855708,2.779375142,-0.5412919557,1.59775694,3.251269045,0
8.314893708,5.017220348,-0.2456137553,6.080378054,7.886940054,0
8.324931708,1.676138865,-0.4559141287,3.656715937,4.048317013,0
8.334968708,-0.08309010386,-1.279786522,0.5792716679,1.407236004,0
8.345006708,-0.9645005608,-1.494954702,0.06263859004,1.780189452,0
8.355044708,-1.252985809,-1.649795989,0.4964952672,2.130330442,0
8.365082708,-1.380848628,-1.95716102,0.9532502255,2.5779659,0
8.375120708,-2.028949918,-1.803981219,1.170063812,2.956355075,0
8.385157708,-2.665457348,-1.482810328,0.6358078113,3.115708734,0
8.395195708,-3.219144816,-0.8951796996,0.1606121966,3.345151166,0
8.405233708,-3.439696528,-0.1735275266,-0.01744604498,3.444115035,0
8.415271708,-3.772793693,0.3199836141,-0.09846945047,3.78761904,0
8.425309708,-4.236821126,0.5993659168,-0.4650835861,4.304206721,0
8.435346708,-4.703117278,0.977385339,-1.23384261,4.959532419,0
8.445384708,-5.005216599,1.206815756,-1.406160055,5.337216837,0
8.455422708,-4.778781418,1.030465193,-1.26879858,5.050590084,0
8.465460708,-4.27826619,0.5883361678,-1.684035676,4.635264523,0
8.475498708,-4.625781419,0.2116747615,-2.127474478,5.095959929,0
8.485536708,-5.301997876,0.0997492598,-1.944211484,5.648104964,0
8.495573708,-5.536870004,-0.04330009371,-1.74810698,5.806434565,0
8.505611708,-4.596777475,0.1177741791,-1.704302126,4.903965707,0
8.515649708,-3.089477547,-0.1210544671,-1.599088497,3.480892086,0
8.525687708,-3.325846562,-0.8645829011,-1.004238677,3.580119309,0
8.535725708,-3.700768275,-0.6403081208,-1.393167103,4.005820128,0
8.545762708,-3.491073673,-0.8809651914,-2.385320608,4.318963934,0
8.555800708,-3.644691138,-1.439339641,-1.375770321,4.153097166,0
8.565838708,-2.745268918,-1.562391956,-0.6321886772,3.221371227,0
8.575876708,-1.964089093,-1.999115377,-0.617453109,2.869731102,0
8.585914708,-1.888712052,-2.563580433,-0.5729826951,3.235349597,0
8.595951708,-1.914654393,-2.373330454,-1.17981843,3.269643775,0
8.605989708,-1.462106799,-1.559733958,-1.774457458,2.778349434,0
8.616027708,-0.9444726777,-0.7157904124,-1.93716208,2.270898826,0
8.626065708,-0.7216680336,-0.3020060572,-2.297245315,2.426797982,0
8.636103708,-0.4419565326,0.03249180794,-2.517609331,2.556313368,0
8.646140708,-0.1631624597,0.2946432433,-2.264981548,2.289886033,0
8.656178708,0.2657664764,0.1598959127,-1.94595103,1.970513622,0
8.666216708,1.156904946,-0.03457809448,-1.09902979,1.596086206,0
8.676254708,2.334594405,0.2009407353,-0.1377276198,2.34727014,0
8.686292708,3.040997697,0.2938436365,0.4768849118,3.092156253,0
8.696329708,3.219549444,0.03085780352,0.8874845445,3.339772394,0
8.706367708,3.111068391,-0.3371750128,0.6481357884,3.195702352,0
8.716405708,2.249435556,-0.5966846761,-0.07756784722,2.328520924,0
8.726443708,1.163702919,-1.129904551,-1.34416612,2.106578111,0
8.736481708,3.722170839,0.04877045631,0.8901004426,3.827429047,0
8.746518708,5.666023303,0.6678394434,-0.5921473829,5.735892966,0
8.756556708,5.24303163,1.025807155,-2.528096312,5.910408781,0
8.766594708,4.231536997,1.273883173,-3.967884289,5.939089949,0
8.776632708,3.7860505,0.8592345992,-3.062240632,4.944671897,0
8.786670708,4.349159587,0.5093392611,-1.229560694,4.548234283,0
8.796707708,5.141350304,0.6011554572,-0.1712509131,5.179208212,0
8.806745708,6.338572387,0.8501798934,0.2084813046,6.398731922,0
8.816783708,7.3376335,0.9981714597,1.831760756,7.628404755,0
8.826821708,6.653563063,-0.5590154511,4.358785858,7.973795449,0
8.836859708,5.553493053,-0.4231928176,3.624360369,6.645025609,0
8.846896708,3.851467395,0.02145080298,1.997261517,4.338584423,0
8.856934708,2.784265169,-0.8254692677,0.4223268449,2.93460253,0
8.866972708,2.327402329,-1.412290276,-0.08794438921,2.723802423,0
8.877010708,1.493049095,-2.365574707,0.7505602956,2.896287288,0
8.887048708,0.575540852,-3.241874698,2.075308982,3.892031115,0
8.897085708,-0.2919163942,-3.481627496,2.708505135,4.420740353,0
8.907123708,-1.778875029,-3.492820821,2.823152661,4.830567732,0
8.917161708,-3.767400806,-3.471984853,2.944111673,5.908957708,0
8.927199708,-5.373974762,-2.699110706,1.160928415,6.124749638,0
8.937237708,-5.591360791,-1.125175615,-0.0594176513,5.703758947,0
8.947274708,-5.113584216,0.1896123397,-0.4570400101,5.137468437,0
8.957312708,-4.526651818,1.15339267,-0.2862668876,4.680047015,0
8.967350708,-4.026492101,2.263101961,0.5410317546,4.650482177,0
8.977388708,-3.764323416,3.13092612,1.61144761,5.154570065,0
8.987426708,-3.670369186,3.988233769,1.40245482,5.598615729,0
8.997463708,-3.795518897,4.583670942,0.6746102268,5.989248864,0
9.007501708,-3.883630589,4.756827462,0.02362435922,6.140891806,0
9.017539708,-3.147638047,4.66863537,-0.3048055579,5.638855196,0
9.027577708,-2.356450127,4.341868694,-0.4324467672,4.959001025,0
9.037615708,-1.884632449,3.538335548,-1.017794423,4.136129037,0
9.047653708,-1.730296361,2.403388212,-2.287418338,3.741989184,0
9.057690708,-1.730897455,0.9354716201,-3.647832847,4.144610673,0
9.067728708,-1.473681362,-0.3054809113,-3.227080073,3.560772548,0
9.077766708,-0.5930041462,-1.398919009,-1.759070071,2.324425913,0
9.087804333,-0.6590934706,-2.441998985,-0.6019503862,2.600020676,0
9.097842333,-1.237093077,-3.052346266,0.2162749122,3.300604769,0
9.107879333,-1.265703503,-2.89823208,0.4764616831,3.198244875,0
9.117917333,-0.7657151091,-2.288739078,0.60611872,2.488378206,0
9.127955333,-0.09972075462,-1.457041941,0.8167192018,1.673303828,0
9.137993333,0.396040687,-0.5804721013,0.5007052624,0.8628452039,0
9.148030333,0.6111521494,0.02453637868,0.3520906021,0.705745546,0
9.158068333,0.5530857897,0.4808232674,0.1518462702,0.74843316,0
9.168106333,0.2471167821,0.7344729973,0.03347940266,0.775653375,0
9.178144333,0.1125045222,0.869789262,0.04769617662,0.8783311181,0
9.188182333,0.5949898607,1.176946131,-0.06020717159,1.320166669,0
9.198220333,1.278211867,1.408124135,0.1376041339,1.906718136,0
9.208257333,1.746003737,1.229293183,0.37848201,2.168626158,0
9.218295333,2.293300783,0.9608264628,0.2968176766,2.504099979,0
9.228333333,2.535432229,1.218301587,0.8040184647,2.925597552,0
9.238371333,2.708467712,1.426963571,1.330300618,3.337921826,0
9.248409333,3.201717775,1.419300503,1.169354764,3.692262341,0
9.258446333,3.20421629,1.250432914,0.4227326417,3.465441876,0
9.268484333,4.767947697,1.295396833,-0.0956382652,4.941712747,0
9.278522333,6.048624165,1.521709953,-0.1809152277,6.23972642,0
9.288560333,7.185201851,1.586016023,0.5835392582,7.381266187,0
9.298598333,7.541223609,1.676105682,1.122332187,7.806344427,0
9.308635333,6.839215668,0.8005361554,0.9131251699,6.946187924,0
9.318673333,5.571935756,0.475857958,1.19772202,5.719042481,0
9.328711333,3.653877114,-0.0330839847,1.733271425,4.044272783,0
9.338749333,2.737572228,-0.539640702,2.400656832,3.680851398,0
9.348786333,1.774853899,-0.8536598638,2.552205552,3.223754753,0
9.358824333,0.5796812654,-1.064450819,1.977258192,2.319188624,0
9.368862333,-0.5271984118,-1.415448065,0.5665583593,1.613201712,0
9.378900333,-1.327482845,-1.709834907,-0.6107562929,2.249170817,0
9.388938333,-1.577706837,-1.62785212,-1.249375738,2.588436038,0
9.398975333,-1.408851528,-1.147478065,-1.366743974,2.273666121,0
9.409013333,-1.871712441,-0.8554118358,-1.059976237,2.31486209,0
9.419051333,-2.41242143,-0.7160441816,-0.5454721302,2.574885681,0
9.429089333,-3.064024032,-0.2662900946,0.05163442254,3.076007119,0
9.439127333,-3.901845251,0.1518445891,0.5925106412,3.949496424,0
9.449164333,-3.942800903,0.482320447,0.6336199294,4.022410495,0
9.459202333,-3.836737674,1.162236437,0.3710882789,4.026047196,0
9.469240333,-3.858110417,1.478561448,-0.2718265307,4.140658113,0
9.479278333,-3.75155719,0.814202414,-1.057225195,3.981812657,0
9.489316333,-4.073309003,0.2541910359,-1.919728022,4.510190128,0
9.499353333,-3.963798839,0.897851804,-1.908055226,4.489823365,0
9.509391333,-2.67132386,1.283037281,-0.8865731098,3.093245497,0
9.519429333,-2.878637475,0.2312898311,-0.630076736,2.955849352,0
9.529467333,-3.003739239,-1.447749838,0.05238652065,3.334842329,0
9.539505333,-2.918262886,-3.291221982,1.661075853,4.701869139,0
9.549542333,-3.764604083,-4.943362412,1.653100251,6.429760204,0
9.559580333,-4.170069897,-5.383781127,0.2713247665,6.815291578,0
9.569618333,-3.362174728,-5.210652673,-0.2269591274,6.205371111,0
9.579656333,-2.738081521,-4.607323221,-0.1644529037,5.362048343,0
9.589694333,-2.299394751,-3.680983929,-1.029879448,4.460662572,0
9.599731333,-1.800394537,-2.901053361,-1.673101822,3.802209989,0
9.609769333,-0.9713008726,-2.138731099,-1.9577741,3.057854726,0
9.619807333,-0.3440238565,-1.620750823,-2.060834785,2.644281689,0
9.629845333,-0.103655346,-1.219561955,-1.922991353,2.27946738,0
9.639883333,0.02385547042,-1.089004154,-1.386618075,1.763294876,0
9.649920333,-0.02500503302,-1.034907177,-1.176873772,1.567383167,0
9.659958333,-0.09791630387,-0.9392172003,-0.7784187698,1.223786065,0
9.669996333,0.2122048116,-0.8766622254,-0.35510137,0.9693629468,0
9.680034333,0.1746037066,-0.6263613421,-0.4916982114,0.8152190603,0
9.690072333,0.0239987272,-0.4492252064,-1.358402921,1.430956925,0
9.700109333,0.3132107842,-0.2463370559,-1.836252587,1.87899082,0
9.710147333,0.1572181803,-0.1216042516,-1.709759771,1.721273837,0
9.720185333,-0.3191538942,0.05300910294,-1.691403022,1.722066594,0
9.730223333,-0.2232449394,0.02581107169,-1.466527294,1.48364646,0
9.740261333,0.04532235324,-0.04623481125,-0.42823838,0.4331049336,0
9.750298333,0.6334487522,0.1144121763,0.2807680929,0.7022664663,0
9.760336333,1.350420302,0.7717576218,-0.05320851127,1.556302016,0
9.770374333,2.216391186,1.782905953,-1.038753183,3.028225834,0
9.780412333,3.047778713,2.883377228,-2.415754927,4.841352207,0
9.790450333,4.208127669,3.69004302,-4.154145005,6.970055716,0
9.800487333,4.299096311,3.767923839,-5.350514563,7.829909658,0
9.810525333,3.410170428,3.56943718,-6.421304641,8.09958625,0
9.820563333,2.653151298,2.728132483,-3.135003383,4.930533934,0
9.830601333,2.173111265,1.6605689,-1.778024844,3.262096563,0
9.840638333,2.316749872,-0.1236770895,-0.7388833328,2.434866438,0
9.850676333,3.558958678,-1.388062338,-0.1835030957,3.824470853,0
9.860714333,3.103166463,-1.740140441,2.123936766,4.143529684,0
9.870752333,0.9693052179,-1.712383124,4.528280268,4.937320199,0
9.880790333,0.6639367193,-2.379794551,4.421051688,5.064576202,0
9.890827333,0.7392172819,-3.210558765,4.301186106,5.417963796,0
9.900865333,1.290966983,-3.197004919,3.979950603,5.265685426,0
9.910903333,2.137376007,-3.245873901,3.678885655,5.351473932,0
9.920941333,1.886791241,-3.970206511,3.668918492,5.725686319,0
9.930979333,1.90564091,-4.201764144,3.766285157,5.955769731,0
9.941016333,1.380242856,-3.746731191,3.26008819,5.154729863,0
9.951054333,0.8458342427,-2.880998581,1.878621511,3.541864929,0
9.961092333,0.7758366394,-1.93604,1.108811086,2.362125186,0
9.971130333,1.047985936,-1.407543798,1.147440058,2.096681367,0
9.981168333,1.379881498,-1.474879749,1.875514301,2.756246926,0
9.991205333,1.571991184,-1.54232402,2.926530265,3.662580928,0
10.00124333,1.195051596,-1.365131751,3.273767166,3.742897871,0
10.01128133,0.2772047997,-1.391877938,2.8456469,3.179917133,0
10.02131933,-0.3546055627,-1.403428528,2.063428609,2.520534539,0
10.03135733,-0.2022931963,-1.286318885,1.103929757,1.707102727,0
10.04139433,0.4013160449,-0.9604792844,0.894764328,1.372653717,0
10.05143233,0.7583259827,-0.5217444214,0.804664582,1.222604035,0
10.06147033,0.3400617832,-0.17453354,0.3129646164,0.4940150039,0
10.07150833,-0.5290011084,-0.08850257903,-0.9915661526,1.127332388,0
10.08154675,-1.128042505,-0.2333669083,-1.398877932,1.812125679,0
10.09158375,-1.268675058,-0.6280443169,-0.6524568808,1.558741816,0
10.10162175,-1.780326893,-1.312960846,0.004402368665,2.21211424,0
10.11165975,-2.95405077,-1.91381064,-0.02031271555,3.519872117,0
10.12169775,-3.584090595,-1.687907264,-0.3382550666,3.976072537,0
10.13173475,-3.202279108,-0.8237717479,-0.1829202745,3.311593454,0
10.14177275,-2.196809446,-0.1249645733,0.1879833055,2.208376238,0
10.15181075,-1.533706539,0.07881103836,1.108272411,1.893867647,0
10.16184875,-1.53638281,0.9975946319,1.228888848,2.205863774,0
10.17188675,-1.275121028,2.098309005,-0.198539357,2.463382267,0
10.18192375,-0.4939067048,2.051406003,0.5979531565,2.193116139,0
10.19196175,-0.4504162842,3.244679607,-0.07800134517,3.276721653,0
10.20199975,0.1682811123,2.33896783,1.630846918,2.856352693,0
10.21203775,0.6371517938,1.284287708,4.023528732,4.271316048,0
10.22207575,0.2585434109,2.530824038,2.009035324,3.241625818,0
10.23211275,0.2106208009,4.341433369,-1.27403944,4.52941291,0
10.24215075,0.8014959759,5.733218921,-2.168276787,6.181716527,0
10.25218875,1.199734046,6.130482261,-2.627243455,6.776767865,0
10.26222675,0.9297043651,5.041569908,-4.047750823,6.53192652,0
10.27226475,-0.01125062764,3.67736918,-4.498101618,5.809999039,0
10.28230175,0.6716544592,2.785208032,-3.330796815,4.393485054,0
10.29233975,1.367383075,2.500455939,-1.223926901,3.10161465,0
10.30237775,1.175795546,2.192697684,-0.4771048037,2.533386526,0
10.31241575,0.2064675236,1.808840986,-0.7680271713,1.975955538,0
10.32245375,-0.2543737614,1.520632311,-0.8076384028,1.740490858,0
10.33249075,0.0635282439,1.445237143,-0.8023683073,1.654249418,0
10.34252875,0.06149341285,1.07929573,-1.261069584,1.6610109,0
10.35256675,0.02936471701,0.5759095189,-1.6624365,1.759610519,0
10.36260475,0.7835011697,0.5308421773,-1.009878463,1.384023847,0
10.37264175,1.879089873,0.9667963969,0.3665619127,2.144770771,0
10.38267975,2.162681002,1.148726226,1.39384231,2.817722031,0
10.39271775,2.56135586,1.077337059,2.996108623,4.086302223,0
10.40275575,2.477462933,0.1893079922,3.493007348,4.286579106,0
10.41279375,1.802169167,-0.8040853422,2.384758837,3.095390388,0
10.42283075,0.7962206179,-1.305542337,0.8322518186,1.740991429,0
10.43286875,0.01986533046,-1.668527691,-0.230929935,1.684549768,0
10.44290675,-0.9003893495,-2.220393898,-1.82790978,3.013652967,0
10.45294475,-1.629600291,-2.141456779,-2.036339629,3.37462788,0
10.46298275,-1.692749051,-1.706179228,-0.3052012682,2.422724648,0
10.47301975,-1.293815746,-2.126580585,1.274033446,2.796330701,0
10.48305775,-1.082827156,-1.890710191,1.002226796,2.398282349,0
10.49309575,-1.292922292,-1.943021283,0.7915866264,2.464465286,0
10.50313375,-1.47225815,-2.936420245,1.117461237,3.469701361,0
10.51317175,0.6465202028,-2.519634222,0.4004640325,2.631903575,0
10.52320875,1.93515824,-1.609456195,-0.2412610149,2.528516073,0
10.53324675,2.190403236,-1.272109712,-0.5215247123,2.586139494,0
10.54328475,1.204716459,-1.353807009,-0.3354124428,1.842996655,0
10.55332275,1.952145571,-1.70439802,0.676831584,2.678422284,0
10.56336075,1.064828841,-2.384480948,1.063396931,2.819649426,0
10.57339775,0.4310199004,-2.393413155,1.203836453,2.713563504,0
10.58343575,-0.4077339488,-1.872265734,0.7052747798,2.04182234,0
10.59347375,-1.800903829,-1.382950702,-0.07858065806,2.271999596,0
10.60351175,-2.941655257,-0.909778516,-0.4429008579,3.110818826,0
10.61354975,-3.865570294,-0.7619949643,-0.3562930691,3.956035235,0
10.62358675,-4.322941841,-0.5251716938,0.5198888075,4.385648851,0
10.63362475,-4.407280326,-0.04726187468,0.8343824708,4.485816276,0
10.64366275,-4.503624313,0.4201980199,0.7550964193,4.585778989,0
10.65370075,-3.815948483,0.9709425113,0.5760406427,3.979449084,0
10.66373875,-2.575811931,1.711405177,0.4598004075,3.126520622,0
10.67377575,-2.018285766,2.243088403,0.2230186522,3.025666924,0
10.68381375,-2.162230766,2.243931718,-0.3681675947,3.137836647,0
10.69385175,-2.031384113,1.960935544,-0.9505174562,2.97913965,0
10.70388975,-1.391108152,1.562252938,-1.538294849,2.596568347,0
10.71392675,-0.9258481264,0.9543325451,-2.348461661,2.698743696,0
10.72396475,-1.112412897,0.2019455063,-2.646586629,2.877961992,0
10.73400275,-1.364991564,-0.4058834513,-2.494083059,2.87200168,0
10.74404075,-0.6014855325,-0.7336715633,-1.894965649,2.119187018,0
10.75407875,0.4674907386,-0.7938750073,-1.224717956,1.532553161,0
10.76411575,0.5858214265,-0.7363615018,-1.21193375,1.534339734,0
10.77415375,0.3311213905,-0.5956238085,-1.29139266,1.460172626,0
10.78419175,0.5005853945,-0.5315161786,-1.161419654,1.371856698,0
10.79422975,0.9000320846,-0.8216141984,-1.019552023,1.588897093,0
10.80426775,1.316263792,-0.9262866676,-0.8566626283,1.823301461,0
10.81430475,1.291754018,-0.4698610537,-0.5202162516,1.469701603,0
10.82434275,1.520578955,0.1290671625,-0.1934713559,1.53826196,0
10.83438075,2.383720372,0.8637050879,-0.385496403,2.564511019,0
10.84441875,3.673067676,1.753995711,-0.8046224821,4.149137795,0
10.85445675,4.127617941,2.149461032,-1.31724437,4.836584056,0
10.86449375,3.67941132,2.409613889,-2.457773019,5.038348437,0
10.87453175,3.559551001,2.462925586,-2.714270489,5.109175085,0
10.88456975,3.788780565,2.164122048,-2.190103859,4.882093539,0
10.89460775,3.841949882,1.18979283,-1.109210962,4.172113952,0
10.90464575,4.31673853,-0.4002466623,-0.3436829638,4.348855816,0
10.91468275,5.790711669,-1.763483403,1.96269614,6.363520369,0
10.92472075,5.746155885,-2.372483485,4.623788688,7.747671081,0
10.93475875,4.697447818,-2.339441016,4.365249663,6.826009441,0
10.94479675,3.388101867,-2.342025631,3.245636212,5.24389862,0
10.95483375,2.468940032,-2.271808465,1.913017173,3.862177272,0
10.96487175,1.977784442,-2.046395232,1.069387915,3.040222896,0
10.97490975,1.632093544,-1.90920815,0.8766930695,2.660337542,0
10.98494775,1.545957626,-1.858921365,1.215745916,2.70621724,0
10.99498575,1.629322549,-1.714210525,1.787597759,2.964576772,0
11.00502275,0.8384784454,-1.742245731,2.073913836,2.835416176,0
11.01506075,-1.133102685,-2.321636682,1.723961488,3.105794873,0
11.02509875,-2.538679773,-2.672468745,1.106777497,3.848628406,0
11.03513675,-2.073091718,-2.303205966,1.608454274,3.491359642,0
11.04517475,-1.728925189,-2.188429801,1.727232567,3.280509052,0
11.05521175,-1.258182229,-1.862534506,1.586192901,2.751011673,0
11.06524975,-0.3411739236,-1.448815054,1.468882699,2.091191309,0
11.07528775,0.007387956977,-0.7800036576,1.002549416,1.270262028,0
11.08532533,-0.2791858363,-0.1077352408,0.6116419999,0.6809240408,0
11.09536333,-1.464222322,-0.4089283888,0.7333892159,1.687906744,0
11.10540033,-2.295071905,-1.534655396,1.136671826,2.985723542,0
11.11543833,-0.8607931745,-2.187817451,2.084248205,3.141910354,0
11.12547633,-0.2443896407,-2.401594871,2.269498522,3.313307677,0
11.13551433,-1.182867168,-1.991852404,1.159620831,2.590631431,0
11.14555133,-1.519048154,-1.509225124,0.2258918278,2.153205724,0
11.15558933,-1.630935795,-1.026815654,-0.1936597093,1.936957934,0
11.16562733,-1.995082844,-0.7729728924,-0.5598040943,2.211611013,0
11.17566533,-2.121220735,-0.6445670865,-0.4429476357,2.260806657,0
11.18570333,-1.978095514,-0.4270213551,-0.3509872326,2.053874664,0
11.19574033,-2.032842994,-0.3818204047,-0.8494039679,2.236006386,0
11.20577833,-1.895186089,-0.5312408844,-0.8226775146,2.133247637,0
11.21581633,-1.917918309,-0.524113567,-0.1591658513,1.994602577,0
11.22585433,-2.052072147,0.04979057617,0.07023445208,2.053877328,0
11.23589233,-0.7274702257,1.541211587,1.462764026,2.245935146,0
11.24592933,-1.710648547,2.33903785,0.2625493566,2.909699071,0
11.25596733,-2.489594151,1.684809994,-0.8430211473,3.122074376,0
11.26600533,-1.366270934,2.056729162,0.1135295757,2.471784796,0
11.27604333,-1.168706966,1.775114977,0.5270376134,2.189675273,0
11.28608133,-0.5077347851,1.560294121,0.492971735,1.713281497,0
11.29611833,-0.3324604028,1.448290705,0.9009261239,1.737740995,0
11.30615633,-0.6409144771,2.152510647,0.2807926694,2.263386396,0
11.31619433,-0.3756836057,2.465281429,-0.6395988536,2.574458659,0
11.32623233,-0.6130869931,2.317261796,-0.6292504513,2.47821186,0
11.33626933,-0.9040321648,1.773636509,-0.2988383281,2.013048675,0
11.34630733,-1.30904365,0.3996351532,2.398657669,2.761677415,0
11.35634533,-3.154041917,1.467187591,0.4368665314,3.505919595,0
11.36638333,-0.7293565375,1.96286454,-0.5485273004,2.164643241,0
11.37642133,0.7929251271,2.627579962,-0.02202529192,2.744702503,0
11.38645833,0.9501351213,2.70239304,-0.9205996656,3.008851714,0
11.39649633,1.098472551,2.748976053,-1.847890885,3.489729503,0
11.40653433,1.050060529,2.708625587,-2.210075608,3.650166281,0
11.41657233,0.9610314077,2.280897377,-1.779586051,3.048442343,0
11.42661033,1.155886361,1.729545725,-1.2660251,2.43520456,0
11.43664733,1.421455786,1.213759324,-0.912931627,2.080190473,0
11.44668533,2.153924212,1.167025745,-0.3225849672,2.470910695,0
11.45672333,2.020467947,1.031338913,0.2043426454,2.277653748,0
11.46676133,1.467402622,0.6591307466,0.8133150259,1.802555166,0
11.47679833,1.510017715,0.09228653155,1.500271575,2.130606745,0
11.48683633,2.162764617,-0.2289517488,1.914005352,2.897134132,0
11.49687433,2.472999169,-0.142217514,1.998173537,3.182553722,0
11.50691233,2.542783933,-0.2021614512,1.728883528,3.081502497,0
11.51695033,1.984820981,-0.8309448928,0.9368923473,2.346859819,0
11.52698733,0.898594839,-1.869576161,0.2518641365,2.089550969,0
11.53702533,-0.2398744208,-2.835866555,0.048653512,2.84640932,0
11.54706333,-0.9545369053,-3.25909007,0.6199241424,3.452117427,0
11.55710133,-0.980653494,-2.949262777,1.037639873,3.276664266,0
11.56713933,-1.187092366,-1.867482858,0.4873910062,2.265884045,0
11.57717633,-1.444176897,-0.104212878,0.1608615804,1.456840307,0
11.58721433,-0.6843861866,1.333307841,-0.04358879998,1.499331262,0
11.59725233,-1.586324463,1.745582737,-0.4682802589,2.404739237,0
11.60729033,-1.95549544,2.207250965,-0.6440333819,3.01839332,0
11.61732833,-2.099024704,1.901864194,-0.8591407514,2.959918065,0
11.62736533,-2.383328608,1.18524662,-0.7368216777,2.761878163,0
11.63740333,-2.261977834,0.3191437346,-0.173151112,2.290933816,0
11.64744133,-2.510058821,-0.5235513938,0.4793947926,2.60850929,0
11.65747933,-1.785871223,-0.6486007152,0.938411454,2.119111835,0
11.66751633,-1.64584561,-0.7959456526,1.582416623,2.417928788,0
11.67755433,-0.757029655,-0.8063399555,0.8112741284,1.371657295,0
11.68759233,0.2978448862,-0.5650912198,-1.732607181,1.846609679,0
11.69763033,-0.7563455307,-0.5280144639,-2.735733279,2.887056357,0
11.70766833,-2.409016011,-0.776102103,-2.803233536,3.77674607,0
11.71770533,-1.637774699,-1.497983852,-1.409140234,2.629056444,0
11.72774333,-0.86676669,-1.679779488,-0.6939194139,2.013570902,0
11.73778133,-1.273632912,-1.34305208,-0.7599977016,2.000881353,0
11.74781933,-1.648259341,-1.188985256,-0.5466023239,2.104570953,0
11.75785733,-1.506014711,-1.106988582,-0.2493147504,1.885646275,0
11.76789433,-0.9999691862,-0.7994995902,-0.1316489641,1.287039012,0
11.77793233,-0.09658547759,-0.2441228615,0.7584294053,0.8025832597,0
11.78797033,0.05442471385,0.5645016742,1.336257176,1.451622345,0
11.79800833,-0.8215273672,0.7524261421,0.7936542019,1.367822834,0
11.80804533,-1.198726571,0.6698176295,0.02993299328,1.373498101,0
11.81808333,-1.146482869,0.6560187853,-0.4070773065,1.382206768,0
11.82812133,-1.012023806,0.8066219375,-0.6721713531,1.458302253,0
11.83815933,-0.6870004767,1.082540203,-0.9335406502,1.585988995,0
11.84819733,-0.2088619584,1.564844863,-1.124828802,1.938453661,0
11.85823433,0.009416940808,1.759972735,-1.070460148,2.0599703,0
11.86827233,0.1086360043,1.452778882,-1.092146448,1.820755921,0
11.87831033,0.1265109426,1.100273931,-1.09554368,1.557826594,0
11.88834833,0.2588866425,0.8366044859,-0.9699595213,1.306809409,0
11.89838533,0.3129938525,0.2926418875,-0.4523593871,0.6230838155,0
11.90842333,0.3326399124,-0.1890602164,-0.2171901476,0.4399598129,0
11.91846133,0.3920341748,-0.1672556569,-0.1163350332,0.4418134096,0
11.92849933,0.7806857353,-0.1229908457,-0.2703728763,0.8352834595,0
11.93853733,1.593644593,0.1699526851,-0.9709301591,1.873844278,0
11.94857433,2.336229871,0.3217883572,-1.631200089,2.867460809,0
11.95861233,2.860660211,0.3290418282,-1.850532657,3.422881313,0
11.96865033,3.487399868,0.4933425947,-1.982788489,4.041880125,0
11.97868833,4.10602125,0.1306289173,-0.9018651867,4.205928582,0
11.98872633,3.991152699,0.4186531124,-2.096039701,4.527466479,0
11.99876333,4.519554468,-1.174726017,-1.707229096,4.972020212,0
12.00880133,3.644385914,-2.130451734,-0.004640350342,4.221420947,0
12.01883933,2.578165435,-2.216744943,2.194692754,4.046921229,0
12.02887733,2.759026832,-2.59019345,2.287257686,4.421863735,0
12.03891433,2.36086536,-2.914066924,1.733902924,4.131814449,0
12.04895233,0.9211352706,-2.570920735,1.483597655,3.107923039,0
12.05899033,0.2698215204,-2.483763893,1.491401349,2.909667457,0
12.06902833,0.01150965929,-2.790067069,1.407951057,3.125209257,0
12.07906633,-0.7845437282,-3.100737238,1.503143728,3.53405169,0
12.08910396,-1.445294884,-2.883175792,1.320314158,3.484940376,0
12.09914196,-1.77492582,-1.961563973,1.17248953,2.893583692,0
12.10917996,-1.656423224,-1.38212756,0.1030361259,2.159775667,0
12.11921796,-2.153881527,-1.549451922,-0.1918599729,2.660228776,0
12.12925596,-2.478522449,-1.834345079,0.3168815931,3.099727301,0
12.13929296,-2.178996488,-2.098700915,1.334701817,3.306659971,0
12.14933096,-1.722670423,-1.88492174,2.136393675,3.329369503,0
12.15936896,-1.224633245,-1.22792055,2.777399368,3.274364474,0
12.16940696,-0.7363281727,-0.3777237723,3.154964608,3.261695281,0
12.17944396,-0.7768552244,0.4067130981,2.676313874,2.816305298,0
12.18948196,-1.054429568,0.8938904616,1.873834981,2.328544482,0
12.19951996,-0.6468844843,1.098863437,1.342531239,1.851580545,0
12.20955796,-0.136882149,1.3227045,1.113486446,1.734397873,0
12.21959596,-0.3516556424,1.734470689,0.6621083681,1.889560201,0
12.22963296,-0.8655019373,2.041887759,-0.2131893365,2.227969685,0
12.23967096,-1.927175036,2.342409793,-1.049330796,3.209670135,0
12.24970896,-0.8623999894,2.091473756,-2.463710282,3.344826538,0
12.25974696,0.1276745385,1.969353195,-1.334486639,2.382332342,0
12.26978396,-0.6605003107,2.097757612,-0.07639745392,2.200609968,0
12.27982196,-0.2818831569,1.785019576,-0.8001329899,1.976351639,0
12.28985996,-0.4251732695,1.67081176,-0.6452671444,1.840856847,0
12.29989796,-0.9067359173,1.328669976,-0.1049680459,1.612002549,0
12.30993596,-1.010162637,1.109298524,0.3081260089,1.531637492,0
12.31997296,-0.964069621,1.12636165,0.8072443736,1.688124485,0
12.33001096,-1.107558539,1.299718803,1.316566093,2.15622382,0
12.34004896,-1.155949511,1.37473741,1.55066288,2.372904884,0
12.35008696,-0.8394736415,1.521484104,1.802041698,2.503394526,0
12.36012396,-0.6119105333,1.693024162,2.255036019,2.88547271,0
12.37016196,-0.5490979886,1.759778461,2.418744024,3.041159563,0
12.38019996,-0.5636195487,1.697796952,2.412251276,3.003187923,0
12.39023796,-0.6306672317,1.303497274,2.55319607,2.935243852,0
12.40027596,-0.4571616322,0.7207389841,2.629849559,2.764881579,0
12.41031296,-0.1714198977,0.4007741542,2.651538051,2.687128345,0
12.42035096,0.1797527647,0.1692112581,2.506972661,2.519098138,0
12.43038896,0.6177922475,0.06865267061,2.189740162,2.276256231,0
12.44042696,0.86950728,0.2255715466,1.821705299,2.03114146,0
12.45046496,0.4374629474,-0.6243447105,0.7955101812,1.101824213,0
12.46050196,0.8316027045,-0.2048783965,1.069017202,1.369794143,0
12.47053996,0.3920259887,-1.640421733,-0.3589851272,1.724395013,0
12.48057796,0.1438309801,-2.666732041,-1.248337272,2.947964226,0
12.49061596,1.885159868,-1.024254354,-3.520030839,4.122322382,0
12.50065296,1.648097958,-1.986539478,-4.646762398,5.31554012,0
12.51069096,2.344853929,-1.475716778,-4.263680896,5.084786597,0
12.52072896,2.914689653,-1.542080044,-4.175986694,5.320929572,0
12.53076696,2.954737233,-1.534932408,-3.501471777,4.831852048,0
12.54080496,2.793821858,-2.109699089,-2.726447901,4.437317768,0
12.55084196,2.473837659,-2.629175083,-1.413652092,3.876963582,0
12.56087996,2.048733972,-3.161538633,-0.8331335056,3.858334984,0
12.57091796,1.793250409,-2.868885489,-1.432837976,3.674136041,0
12.58095596,2.871543633,-2.925452623,0.1535993385,4.102149271,0
12.59099296,3.620646218,-3.274057773,1.043332722,4.991700763,0
12.60103096,3.726210095,-3.006586248,1.133223138,4.920202966,0
12.61106896,3.655687997,-2.770931178,0.7800162292,4.653014038,0
12.62110696,3.242800312,-2.606416258,0.5364469528,4.19487007,0
12.63114496,2.442732226,-3.008119973,0.3560592536,3.891337134,0
12.64118196,2.459012629,-3.586122503,-0.264870756,4.356279861,0
12.65121996,3.18594608,-3.653478334,0.7963953035,4.912474106,0
12.66125796,4.203090293,-3.3574455,2.680932004,6.010474582,0
12.67129596,4.475555924,-3.270564646,3.574578345,6.59581718,0
12.68133396,4.759039464,-3.148025717,4.218390702,7.096008924,0
12.69137096,4.982501335,-2.807497034,4.237553197,7.117880039,0
12.70140896,4.865097431,-2.349079712,3.886477014,6.655227425,0
12.71144696,4.393152868,-2.550701063,3.351394801,6.085861907,0
12.72148496,4.143186153,-2.291100476,2.878350377,5.540761119,0
12.73152196,3.404226733,-1.755780135,2.425936684,4.533948867,0
12.74155996,2.829125007,-1.272820149,2.320854033,3.874323538,0
12.75159796,3.044324178,-0.1976575238,2.479767905,3.931440838,0
12.76163596,3.385826131,0.739133082,2.416211595,4.224714756,0
12.77167396,3.852806992,1.698506512,2.069285911,4.69158718,0
12.78171096,3.918814455,3.129724225,1.503463717,5.23571233,0
12.79174896,3.482686427,4.732431417,0.4142746443,5.890384991,0
12.80178696,2.332741422,6.088204553,-1.235888843,6.635912782,0
12.81182496,1.274704122,7.19927259,-2.651533958,7.777212146,0
12.82186196,0.2825327826,7.869780995,-3.751969127,8.722989741,0
12.83189996,-0.5619571853,8.340094185,-4.839091647,9.658663202,0
12.84193796,-1.334770229,8.033327617,-5.922978026,10.06963916,0
12.85197596,-3.106191228,6.136323629,-6.620656103,9.546516582,0
12.86201396,-9.537841932,1.442706468,-9.309391801,13.40584225,0
12.87205096,-13.72471322,-2.330277113,-10.47730413,17.4233133,0
12.88208896,-15.45966981,-3.332788961,-8.755211413,18.076576,0
12.89212696,-15.95841509,-3.302122069,-6.853200454,17.67883986,0
12.90216496,-14.64883057,-1.900437327,-5.681247699,15.82644857,0
12.91220196,-12.08876519,0.3400119357,-6.302811985,13.63742244,0
12.92223996,-8.166313182,2.560820839,-7.007695001,11.06138615,0
12.93227796,-4.536166407,3.22537444,-6.418086918,8.495392024,0
12.94231596,-1.639398471,1.180559126,-5.11363801,5.498239799,0
12.95235396,0.1331422698,-1.401935588,-2.980968427,3.296865636,0
12.96239096,1.036683269,-2.582615166,-2.289304796,3.603544053,0
12.97242896,2.8360294,-3.301616285,-2.017339686,4.797227559,0
12.98246696,3.571893303,-2.43352637,-2.564344956,5.025568368,0
12.99250496,4.061042714,-1.746113372,-3.41845184,5.588093844,0
13.00254196,5.250122548,-1.634015816,-3.226231642,6.375136474,0
13.01257996,5.804892921,-2.148436161,-3.363086894,7.044353286,0
13.02261796,6.283267082,-2.368130233,-4.402034204,8.029034261,0
13.03265596,6.703490099,-2.518260711,-4.714169101,8.573319475,0
13.04269396,6.03098487,-2.907654575,-4.152140579,7.878293281,0
13.05273096,5.490902118,-3.522302775,-2.889063646,7.134655679,0
13.06276896,4.143941029,-3.355036155,-2.022399867,5.702509629,0
13.07280696,4.834742196,-1.931803984,-1.57526504,5.439490663,0
13.08284446,6.498982562,0.1097517993,0.07611145198,6.500354817,0
13.09288146,5.626301413,0.06915648133,1.136787016,5.740412436,0
13.10291946,4.109385154,1.410291259,-0.2252458566,4.350483131,0
13.11295746,3.456723036,3.320408067,0.4216701295,4.811636891,0
13.12299546,2.681703837,4.245541956,2.185713769,5.476632784,0
13.13303346,0.9483142984,3.027758431,4.195300047,5.259958518,0
13.14307046,-1.486697849,0.628490898,7.327188034,7.502863173,0
13.15310846,-3.954451481,-1.330411861,10.07184066,10.90181895,0
13.16314646,-5.400705893,-1.711600474,11.2654936,12.60985909,0
13.17318446,-5.753491802,-0.6985026808,10.96404975,12.40165154,0
13.18322246,-6.640425539,1.131433159,8.762444419,11.05241261,0
13.19325946,-8.161584538,2.352855698,5.343052347,10.03471975,0
13.20329746,-9.433439897,3.000243773,2.714599687,10.26451667,0
13.21333546,-10.59765971,2.860605832,0.2794863832,10.98050863,0
13.22337346,-11.66598577,2.081602779,-1.131911023,11.90418064,0
13.23341046,-11.73969928,0.9266452481,-1.403151078,11.85951279,0
13.24344846,-10.93480315,-0.01112520486,-1.445346632,11.02991707,0
13.25348646,-9.606946666,-0.8632468124,-0.9572362724,9.693034642,0
13.26352446,-6.066763397,-1.516253624,0.5617735827,6.278553395,0
13.27356246,-1.686712385,-2.479251012,-0.4950510049,3.039203802,0
13.28359946,2.10631969,-3.1342909,-3.486937938,5.139951193,0
13.29363746,6.182109666,-2.889315953,-5.948801669,9.052892792,0
13.30367546,7.166952106,-3.616422774,-7.033851351,10.67327415,0
13.31371346,7.303769351,-4.009666153,-6.100587786,10.32664712,0
13.32375046,5.09535786,-4.779928057,-5.565807874,8.932446543,0
13.33378846,0.9474021327,-5.409021803,-5.356418497,7.671134648,0
13.34382646,-4.51047725,-4.91206636,-4.24647254,7.906031241,0
13.35386446,-34.70137952,-6.840076379,-7.977771467,36.25765054,0
13.36390246,-22.73772369,-9.619269673,-7.800558733,25.89175823,0
13.37393946,-2.362218406,1.221339508,0.135767962,2.66273899,0
13.38397746,-3.813176318,2.198302824,-0.2231937763,4.407115202,0
13.39401546,7.072900811,2.203085847,0.2831458631,7.413479933,0
13.40405346,13.34750817,1.432132217,2.148814038,13.59501301,0
13.41409046,16.2098781,-3.60938565,11.29662534,20.0848589,0
13.42412846,19.92540007,-2.917253072,12.12592775,23.50680875,0
13.43416646,18.89907105,0.2795197123,-0.2322227544,18.90256452,0
13.44420446,12.57715271,1.091978048,-5.816114897,13.8997978,0
13.45424246,6.696019696,-0.5480063134,-3.766996763,7.702418796,0
13.46427946,1.622625732,-2.557561601,-3.099641762,4.333799103,0
13.47431746,-1.013634129,-1.705987147,-2.960660755,3.5641771,0
13.48435546,-1.819548261,0.4031871539,-1.947037151,2.695230866,0
13.49439346,-1.631795921,2.177297872,-0.9413461715,2.879152056,0
13.50443046,-0.2140279734,2.973907329,-0.5020881289,3.023578222,0
13.51446846,1.223505317,3.029407931,-0.8309524941,3.371165929,0
13.52450646,2.675918602,2.654980307,-1.389624714,4.017526309,0
13.53454446,3.7471174,1.816814688,-1.676941103,4.489302382,0
13.54458246,4.707213838,0.3633582598,-0.8124527809,4.790612785,0
13.55461946,6.35327638,1.042186083,1.314180429,6.570946872,0
13.56465746,4.526969322,0.05321083188,2.28090644,5.069400046,0
13.57469546,5.261401243,-1.175369284,3.396490282,6.371811534,0
13.58473346,5.818016412,-0.8497080231,2.393895112,6.348389756,0
13.59477046,4.264941555,-1.408729321,0.4161986706,4.510816567,0
13.60480846,3.168519039,-1.552501245,-1.392085514,3.793108895,0
13.61484646,3.181359524,-2.128436199,-1.211574073,4.014872452,0
13.62488446,5.817034079,-3.768146034,1.9535796,7.20092239,0
13.63492246,6.626795679,-3.158374704,3.003111833,7.931483621,0
13.64495946,4.397609616,-0.8645444557,1.848422982,4.847997006,0
13.65499746,2.266453877,-1.323346524,1.661221449,3.106077253,0
13.66503546,-1.614068332,-2.786471616,3.417946056,4.695955269,0
13.67507346,-2.37872685,-5.922826583,3.711717771,7.383431788,0
13.68511046,-5.269021919,-6.4772508,1.165050117,8.43058193,0
13.69514846,-6.820459555,-6.409704934,-2.020295454,9.575206505,0
13.70518646,-7.179918306,-5.194671063,-5.584448213,10.47482201,0
13.71522446,-7.286617713,-3.625272243,-7.846855817,11.30533249,0
13.72526246,-6.399353024,-2.559536498,-7.278452076,10.02391195,0
13.73529946,-4.146990352,-2.318233603,-5.834197412,7.523934838,0
13.74533746,-1.466215053,-2.083408253,-5.024121231,5.633131516,0
13.75537546,0.2773790467,-2.076213254,-5.594130033,5.973432132,0
13.76541346,1.392437224,-2.353856302,-6.200793275,6.777120196,0
13.77545046,2.41147652,-2.510619862,-6.266451659,7.168462003,0
13.78548846,3.215175726,-2.620296086,-5.700250565,7.049550555,0
13.79552646,3.5462901,-2.798732058,-4.641033297,6.476748001,0
13.80556446,3.736763735,-3.461960387,-3.770608588,6.337670081,0
13.81560246,3.542611617,-4.574576767,-3.027038639,6.529916737,0
13.82563946,2.483609526,-5.481280525,-1.966424471,6.330843362,0
13.83567746,2.181455242,-5.803863226,-0.4615265787,6.217441765,0
13.84571546,0.9937664598,-6.164960952,1.074555684,6.336322691,0
13.85575346,1.014389005,-5.78382014,1.043870666,5.964161839,0
13.86579046,0.8499103367,-4.587441811,0.03759467304,4.665660008,0
13.87582846,0.6747698557,-3.786661534,-0.0003958564997,3.846312532,0
13.88586646,0.5558778352,-1.953873861,-1.287998936,2.40532004,0
13.89590446,0.02011208296,-0.6217585601,-2.860086014,2.926957501,0
13.90594246,-0.3235919309,0.468709006,-3.736625741,3.779784623,0
13.91597946,-0.545480901,1.383612607,-3.987568941,4.255894655,0
13.92601746,-0.5286116838,1.833029017,-4.015346723,4.445496035,0
13.93605546,-0.8058486432,1.693245187,-3.988143137,4.407012251,0
13.94609346,-1.424406876,1.124241157,-4.257206858,4.627814102,0
13.95613046,-1.830862039,0.5258951405,-4.784501165,5.149764354,0
13.96616846,-1.912337726,0.02761687461,-5.045988649,5.396276467,0
13.97620646,-2.220483068,-0.1637441846,-5.232103769,5.686146943,0
13.98624446,-2.21834708,-0.2465586653,-5.598950477,6.027445677,0
13.99628246,-2.050196945,-0.3486855492,-5.352278084,5.742104998,0
14.00631946,-2.121709562,-0.5366214922,-4.727381469,5.209390525,0
14.01635746,-2.339913032,-0.9148709292,-3.992182394,4.716958986,0
14.02639546,-2.491117643,-1.520940752,-2.986406922,4.175829761,0
14.03643346,-2.984349872,-2.253295595,-2.04539872,4.262316403,0
14.04647046,-3.158276471,-2.791182425,-1.180463963,4.377088617,0
14.05650846,-2.923774764,-2.846796755,-0.293592791,4.09132098,0
14.06654646,-2.716139552,-2.453003738,0.0642141223,3.660432332,0
14.07658446,-2.055120593,-1.823917008,0.202797811,2.755235173,0
14.08662533,-1.897430835,-1.401430096,0.7947459501,2.489150701,0
14.09666233,-2.303247189,-2.00032385,2.112799575,3.710817317,0
14.10670033,-2.475635386,-2.839618713,2.971157384,4.797914255,0
14.11673833,-2.621623404,-3.296935589,3.588286557,5.533398049,0
14.12677633,-2.648854472,-3.613374621,4.337920654,6.236221754,0
14.13681333,-2.225352044,-4.014671955,4.967537141,6.763594301,0
14.14685133,-1.662985846,-4.16726908,5.164454407,6.841289559,0
14.15688933,-1.380713849,-4.074152171,4.829367435,6.467447446,0
14.16692733,-1.124297948,-3.674325412,4.269614065,5.744068016,0
14.17696533,-0.5590157434,-3.125544927,3.727687687,4.896650404,0
14.18700233,-0.1087712212,-2.578778223,3.358216748,4.235510362,0
14.19704033,0.08917573974,-2.137444127,2.812561015,3.533711812,0
14.20707833,0.4104556815,-1.826149621,2.420368965,3.05965394,0
14.21711633,0.6039815627,-1.608997773,2.590100187,3.108421873,0
14.22715333,0.6814875756,-1.691826945,2.891025971,3.41829415,0
14.23719133,0.8378391986,-2.044418434,2.911358494,3.654809097,0
14.24722933,0.9138559256,-2.316011222,2.631872111,3.622953415,0
14.25726733,0.8278772973,-2.511207215,2.16383992,3.416686362,0
14.26730433,0.8077263303,-2.613969983,1.688075371,3.214787607,0
14.27734233,0.9069986035,-2.618435794,1.275647278,3.05059477,0
14.28738033,0.9558420038,-2.446053591,0.9121030766,2.780061893,0
14.29741833,1.107988163,-2.041340752,0.5458510298,2.385930255,0
14.30745633,1.600596494,-1.523198216,0.1265986508,2.213158186,0
14.31749333,1.875151043,-1.014529338,-0.2116487414,2.142488366,0
14.32753133,1.663627432,-0.6281656466,-0.4708979112,1.839563305,0
14.33756933,1.441981267,-0.3671172886,-0.8562820476,1.716771395,0
14.34760733,1.109700959,-0.2132738288,-1.350610337,1.760985584,0
14.35764433,0.7584268472,-0.05166395098,-1.620471618,1.789918633,0
14.36768233,0.5615753621,0.03510346681,-1.6835736,1.775111041,0
14.37772033,0.526216372,0.004700138122,-1.579102567,1.664479102,0
14.38775833,0.6235950243,-0.02125170529,-1.372116981,1.507324583,0
14.39779633,0.6404899693,0.0001783400774,-1.297326999,1.446818847,0
14.40783333,0.5474593064,0.0662343353,-1.376485435,1.482838775,0
14.41787133,0.5891245186,0.1560475677,-1.449901321,1.572778555,0
14.42790933,0.5350474218,0.2593244527,-1.527609063,1.639242009,0
14.43794733,0.4832337821,0.3056652448,-1.661052464,1.756713243,0
14.44798433,0.391570783,0.3288835149,-1.663949175,1.740752395,0
14.45802233,0.3265883365,0.2789785525,-1.613686509,1.669872188,0
14.46806033,0.322216081,0.1260582219,-1.430180417,1.471438039,0
14.47809833,0.3142986587,-0.1096636525,-1.084890638,1.134811641,0
14.48813633,0.2695072326,-0.3622541593,-0.8278838754,0.9430026169,0
14.49817333,0.2340093711,-0.5267253721,-0.7006385225,0.9072454699,0
14.50821133,0.3090463972,-0.5514824831,-0.5833357751,0.8601879047,0
14.51824933,0.4744313836,-0.609313931,-0.3157245022,0.8342844632,0
14.52828733,0.3987263131,-0.7326488122,-0.1269307727,0.843722926,0
14.53832433,0.1996055236,-0.7264902323,-0.2383944905,0.7902293059,0
14.54836233,0.08260244608,-0.6361352554,-0.4697828472,0.7951019751,0
14.55840033,0.1467013782,-0.4821002993,-0.6641092122,0.8336564272,0
14.56843833,0.3548645943,-0.2759359539,-0.802583558,0.9198966781,0
14.57847633,0.5214868516,-0.09956814229,-0.940878979,1.080331248,0
14.58851333,0.5660990605,-0.01983697146,-1.037189053,1.18178796,0
14.59855133,0.7016141304,-0.01726215005,-0.9492773348,1.180545564,0
14.60858933,0.9333995131,-0.1120651039,-0.415965659,1.028017834,0
14.61862733,1.043597601,-0.3071425438,0.120455566,1.094505385,0
14.62866433,0.9129193479,-0.5651591206,0.3294385618,1.123101212,0
14.63870233,0.7234172282,-0.7137348238,0.4348925114,1.105387435,0
14.64874033,0.5769441837,-0.7088284251,0.5191122973,1.051085108,0
14.65877833,0.5435776323,-0.6404019687,0.5613309485,1.010288948,0
14.66881533,0.6173791417,-0.5396778318,0.5989957881,1.015482703,0
14.67885333,0.8591422132,-0.377469053,0.5332561272,1.079337911,0
14.68889133,1.308515646,-0.2109470755,0.6785518348,1.489007877,0
14.69892933,2.101876976,-0.1141540217,0.7896775836,2.248223443,0
14.70896733,2.687327981,-0.02805844903,0.7370637524,2.786715258,0
14.71900433,2.63156484,-0.1495858097,0.8611966324,2.772935098,0
14.72904233,2.234131638,-0.5126619413,1.045365799,2.519316593,0
14.73908033,1.74072107,-0.8146098188,1.191951987,2.261514656,0
14.74911833,1.49491728,-1.075604382,1.256435081,2.229424046,0
14.75915533,1.486128038,-1.409378655,1.266049073,2.407863159,0
14.76919333,1.545187255,-1.769349622,1.340049096,2.704428464,0
14.77923133,1.541427788,-2.011393945,1.352158095,2.872287719,0
14.78926933,1.389812117,-2.021364617,1.240017269,2.748660667,0
14.79930733,1.104448405,-1.93298863,1.007348957,2.443563636,0
14.80934433,0.8577891675,-1.746817377,0.6679636967,2.057510317,0
14.81938233,0.6534833595,-1.60666605,0.3625215232,1.771958846,0
14.82942033,0.414864336,-1.509845222,0.1029671288,1.569186809,0
14.83945833,0.21188263,-1.338707744,-0.1676817727,1.365704892,0
14.84949533,0.1423054415,-1.191793235,-0.4226589668,1.272502478,0
14.85953333,0.05430893898,-1.012406799,-0.7074218774,1.236269671,0
14.86957133,-0.2254171801,-0.755908159,-1.082780963,1.339636019,0
14.87960933,-0.4700497726,-0.4922510657,-1.467017875,1.617219635,0
14.88964633,-0.5724888977,-0.2456105393,-1.772134359,1.878437718,0
14.89968433,-0.7135868892,-0.03221611172,-1.888313856,2.018903996,0
14.90972233,-0.8297234094,0.1306314754,-1.939966405,2.113995074,0
14.91976033,-0.9902040437,0.2590658596,-1.971602765,2.221449219,0
14.92979833,-1.01838967,0.2755684564,-1.928827459,2.198506507,0
14.93983533,-1.152663083,0.2720724061,-1.858127021,2.203472624,0
14.94987333,-1.217934382,0.2315003309,-1.696493608,2.101201353,0
14.95991133,-1.161326026,0.1080354953,-1.458862764,1.86778756,0
14.96994933,-1.285855347,0.05363884807,-1.33513685,1.854424845,0
14.97998633,-1.47047738,0.02271730989,-1.405374189,2.034182001,0
14.99002433,-1.546166371,0.03469971657,-1.536198038,2.179848373,0
15.00006233,-1.38518463,0.03345776796,-1.452398667,2.007316061,0
15.01010033,-1.191929183,0.0321789819,-1.176459205,1.675048335,0
15.02013733,-1.208665376,0.08575935781,-0.990626505,1.565109431,0
15.03017533,-1.371102489,0.141494725,-0.9577528739,1.678461605,0
15.04021333,-1.431562991,0.2635340095,-0.9498497772,1.738113164,0
15.05025133,-1.427984787,0.3422831404,-0.6903591174,1.622619491,0
15.06028933,-1.409535068,0.3661432886,-0.3137077975,1.489718966,0
15.07032633,-1.403323863,0.4481390861,-0.06235061467,1.474460614,0
15.08036433,-1.461602769,0.6721441635,-0.01087874472,1.608781768,0
15.09039971,-1.344601153,0.9012927443,-0.05578243732,1.619689029,0
15.10043771,-1.172819605,1.037699807,0.08754217386,1.568435637,0
15.11047471,-0.9605229923,1.122691425,0.3765016311,1.524727495,0
15.12051271,-0.8205108288,1.197905914,0.5311803657,1.54608188,0
15.13055071,-0.7429977992,1.351548522,0.6208240288,1.662573792,0
15.14058871,-0.6552711457,1.395059408,0.6716819412,1.6812875,0
15.15062671,-0.7236294821,1.301647799,0.8975937957,1.738850552,0
15.16066371,-0.8687509426,1.154925663,1.136323332,1.838426556,0
15.17070171,-1.051398956,0.8855225113,1.572803947,2.088851871,0
15.18073971,-1.260027318,0.5581114715,2.250672827,2.639069046,0
15.19077771,-1.572673846,0.1568989223,2.709782166,3.137011267,0
15.20081471,-1.945439399,-0.2023317879,2.958631479,3.546712962,0
15.21085271,-2.278150063,-0.4439776227,3.133798272,3.89971479,0
15.22089071,-2.371482734,-0.4906126758,3.026084958,3.875799444,0
15.23092871,-2.161892213,-0.4601092136,2.72992524,3.512544696,0
15.24096571,-1.971625277,-0.5419889438,2.633943195,3.334473722,0
15.25100371,-1.857795776,-0.6075485104,2.791651956,3.407908594,0
15.26104171,-1.645951445,-0.4955094266,3.043009139,3.494937821,0
15.27107971,-1.542204005,-0.4402479762,3.328763153,3.694979784,0
15.28111771,-1.490619577,-0.6891923055,3.326079866,3.709412356,0
15.29115471,-1.482016276,-0.9510452405,3.0658355,3.535563124,0
15.30119271,-1.53705524,-1.078993429,2.765693827,3.343026769,0
15.31123071,-1.510995369,-1.073600542,2.388312775,3.023204101,0
15.32126871,-1.399855587,-0.9530651611,1.960020601,2.590291416,0
15.33130571,-1.223388665,-0.7901833677,1.545258883,2.123415785,0
15.34134371,-1.056864349,-0.6004780573,1.159570692,1.679922718,0
15.35138171,-0.9607492796,-0.4335517448,0.8835727572,1.375393439,0
15.36141971,-0.8679256082,-0.4183244258,0.6842546242,1.181733717,0
15.37145771,-0.6081560361,-0.4968069237,0.6547478199,1.022431216,0
15.38149471,-0.4320086646,-0.5480378884,0.6828811133,0.9763726893,0
15.39153271,-0.3719872883,-0.5713296872,0.5924743885,0.9032264695,0
15.40157071,-0.4114659342,-0.5881480336,0.377629559,0.811064984,0
15.41160871,-0.4651255399,-0.6484038833,0.03902957976,0.7989322073,0
15.42164571,-0.4663046309,-0.6710495648,-0.2807534748,0.8640428467,0
15.43168371,-0.5301989105,-0.6012636307,-0.5102104962,0.9502334391,0
15.44172171,-0.5745760614,-0.5282129037,-0.703214221,1.050550695,0
15.45175971,-0.669774287,-0.4995057061,-0.9114464343,1.236461948,0
15.46179671,-0.7123095649,-0.4557632706,-1.03276271,1.334804814,0
15.47183471,-0.6303435883,-0.427468594,-1.068858742,1.312448646,0
15.48187271,-0.5199771005,-0.3713566661,-1.174491616,1.33705367,0
15.49191071,-0.4111405367,-0.3301902214,-1.313053086,1.414980752,0
15.50194871,-0.3758297861,-0.3306325632,-1.255971397,1.352046623,0
15.51198571,-0.3979041946,-0.4280500996,-1.254287399,1.38375992,0
15.52202371,-0.4002442503,-0.4549455374,-1.335047972,1.466125503,0
15.53206171,-0.1773238313,-0.4733420473,-1.377381814,1.467200428,0
15.54209971,0.1083834046,-0.5857918981,-1.200714625,1.340378573,0
15.55213671,0.3022244507,-0.6964089391,-0.9558554524,1.220649284,0
15.56217471,0.3373451668,-0.7506594059,-0.8252093589,1.16544489,0
15.57221271,0.458753829,-0.7770850199,-0.6962466788,1.139769995,0
15.58225071,0.7011975163,-0.8868460286,-0.4813001078,1.228748806,0
15.59228871,0.9476050311,-0.9207250884,-0.2387178415,1.342637774,0
15.60232571,1.074998611,-0.870508031,-0.06814052761,1.384936597,0
15.61236371,1.11095811,-0.8681285065,-0.01754164696,1.410029339,0
15.62240171,1.181736901,-0.951239368,-0.1309109724,1.522660869,0
15.63243971,1.319580333,-1.004786122,-0.2188162583,1.672951871,0
15.64247671,1.450268526,-1.08688103,-0.06653663635,1.813564528,0
15.65251471,1.373428511,-1.19050831,0.05940829575,1.818555816,0
15.66255271,1.18585568,-1.195556503,-0.08092429519,1.685870039,0
15.67259071,0.962028358,-1.227147255,-0.3034728312,1.588547987,0
15.68262771,0.7983539745,-1.17717695,-0.5639364678,1.530078096,0
15.69266571,0.6460515484,-1.016110425,-0.7595234925,1.423635815,0
15.70270371,0.5502247471,-0.7410717264,-0.8673473185,1.266580415,0
15.71274171,0.6058320603,-0.4298951885,-0.8188008106,1.105566428,0
15.72277971,0.7748323801,-0.1768344194,-0.6493765676,1.026316499,0
15.73281671,0.7908227608,-0.06200065881,-0.5993735182,0.9942300212,0
15.74285471,0.6846665606,-0.04853978366,-0.7499165171,1.016611623,0
15.75289271,0.6969021517,-0.1133611393,-0.6870449156,0.9851670279,0
15.76293071,0.8675662968,-0.2409237036,-0.1269798893,0.9093071002,0
15.77296771,0.9592456681,-0.4464150345,0.7396271718,1.290924858,0
15.78300571,0.8779904205,-0.6329371208,1.628941895,1.955742384,0
15.79304371,0.7813388693,-0.9292544219,2.263500448,2.568547934,0
15.80308171,0.7368912596,-1.286455271,2.639531963,3.027392422,0
15.81311871,0.7909090072,-1.409097111,2.89838937,3.318396098,0
15.82315671,0.7575018176,-1.387936623,2.900193236,3.303225375,0
15.83319471,0.7079808712,-1.267441295,2.566810727,2.948925509,0
15.84323271,0.6602886415,-0.9121963397,1.925060098,2.23023309,0
15.85327071,0.7458717057,-0.4105411971,1.212098569,1.48123314,0
15.86330771,0.8647578791,0.0103168273,0.5957330418,1.050147839,0
15.87334571,1.111336717,0.3657600036,0.03060841978,1.170378808,0
15.88338371,1.384656335,0.6074333203,-0.358042556,1.553847765,0
15.89342171,1.617755587,0.6617934224,-0.5150888282,1.822202012,0
15.90345871,1.589773736,0.6053689608,-0.5835263944,1.798431306,0
15.91349671,1.395442109,0.4714446259,-0.6942293894,1.628334474,0
15.92353471,1.063841831,0.3022212347,-0.8812777251,1.414124303,0
15.93357271,0.7702046013,0.04271683395,-1.078525944,1.325993238,0
15.94360971,0.4378167039,-0.1627780053,-1.237976006,1.323164668,0
15.95364771,0.01558867693,-0.2591737407,-1.3978956,1.421803834,0
15.96368571,-0.3708543903,-0.3875935069,-1.672994817,1.7568931,0
15.97372371,-0.639077282,-0.4799906239,-1.888237842,2.050427497,0
15.98376171,-0.8978037107,-0.5533345887,-1.92323869,2.193416908,0
15.99379871,-1.248130866,-0.5617621806,-1.982049986,2.408719484,0
16.00383671,-1.553387682,-0.4739241377,-2.075905983,2.635716796,0
16.01387471,-1.694390949,-0.3719130287,-2.127996488,2.745477926,0
16.02391271,-1.666634216,-0.2613073897,-1.997773733,2.614775526,0
16.03394971,-1.775992644,-0.1436172643,-1.792284449,2.527263211,0
16.04398771,-1.889407578,-0.03088411599,-1.71515792,2.551976002,0
16.05402571,-2.014273991,0.09322946817,-1.67879701,2.62380465,0
16.06406371,-1.90555174,0.237399002,-1.432613443,2.395801953,0
16.07410171,-1.860877551,0.3174199024,-1.188972831,2.230981185,0
16.08413871,-1.832514754,0.4382751256,-1.051175593,2.157583263,0
16.09417633,-1.755266604,0.5664934552,-0.8078571618,2.013581108,0
16.10421433,-1.619619386,0.6384288257,-0.553582803,1.826803832,0
16.11425233,-1.411782445,0.6528585845,-0.2877268642,1.58181565,0
16.12428933,-1.332997061,0.7524752587,-0.01147633016,1.530761865,0
16.13432733,-1.201880267,0.8387944874,0.1175997859,1.470347604,0
16.14436533,-0.9304446226,0.9349744606,0.32193483,1.357772614,0
16.15440333,-0.6984013778,1.049910547,0.5723137736,1.384781462,0
16.16444033,-0.6720304352,1.167211833,0.6610382545,1.500326612,0
16.17447833,-0.6890396932,1.19207624,0.8695558119,1.62848051,0
16.18451633,-0.8044216302,1.122820064,0.9923771614,1.70077379,0
16.19455433,-0.8570670363,1.021528455,0.9821942353,1.656137013,0
16.20459133,-0.8814282909,0.9164569134,0.8911829084,1.552744693,0
16.21462933,-0.9613942274,0.9150942197,0.9595234108,1.637791643,0
16.22466733,-0.9629694673,0.9659951091,0.9544772637,1.66477734,0
16.23470533,-0.8235619059,0.9508745018,0.9437885535,1.572626264,0
16.24474333,-0.5362262204,0.8999899846,1.157822959,1.561433488,0
16.25478033,-0.01936451644,0.7804351822,1.54731301,1.733098846,0
16.26481833,0.4462109667,0.6722915134,1.77469427,1.949517853,0
16.27485633,0.5914408931,0.7617571288,1.825931082,2.064969871,0
16.28489433,0.5417307892,0.9604788458,1.665888696,1.997793035,0
16.29493133,0.3553361723,1.120770907,1.290367059,1.745691372,0
16.30496933,0.1040333685,1.420544498,0.8552055752,1.661368769,0
16.31500733,-0.09070785642,1.768447689,0.4451216304,1.825861005,0
16.32504533,-0.1702244344,1.932250127,0.1507113987,1.94557982,0
16.33508233,0.03546073169,1.940718942,0.003232925534,1.941045575,0
16.34512033,0.6822177467,1.840391246,0.2274268681,1.9759008,0
16.35515833,1.377658387,1.56103087,0.778676632,2.222857914,0
16.36519633,1.843693461,1.09440932,1.279154438,2.496632415,0
16.37523333,1.976971971,0.5049319223,1.548695292,2.561607216,0
16.38527133,1.912939405,-0.1067301044,1.596949439,2.494188444,0
16.39530933,1.750436219,-0.6093520841,1.40949823,2.328523605,0
16.40534733,1.423897583,-1.083670909,0.8469691873,1.979692848,0
16.41538533,0.8952204108,-1.366543415,0.08370172262,1.635807588,0
16.42542233,0.4435835204,-1.426980528,-0.6686893362,1.637127116,0
16.43546033,0.3801552638,-1.364207744,-1.35010923,1.956623553,0
16.44549833,0.6382209572,-1.283290758,-1.905585362,2.384411192,0
16.45553633,1.068362898,-1.154216689,-2.248234538,2.743751808,0
16.46557333,1.44607695,-1.015075175,-2.563190131,3.113110953,0
16.47561133,1.338449882,-1.164013114,-2.924992447,3.420812101,0
16.48564933,0.7492665991,-1.737038201,-3.48080187,3.961651651,0
16.49568733,0.09891383886,-2.393078548,-4.077394452,4.728821672,0
16.50572533,-0.3822611386,-3.092615163,-4.59406963,5.551204184,0
16.51576233,-0.6920822918,-3.749453362,-5.014070452,6.299069845,0
16.52580033,-0.9682901412,-4.223480703,-5.494542595,6.997526232,0
16.53583833,-1.444245309,-4.574161615,-6.048437054,7.719610728,0
16.54587633,-1.964248722,-5.171289217,-6.714392817,8.699630803,0
16.55591333,-2.284904181,-6.069185314,-6.904755939,9.472668688,0
16.56595133,-2.388665362,-6.551107566,-6.283362976,9.386340226,0
16.57598933,-2.462951898,-6.643629813,-5.683205931,9.083104029,0
16.58602733,-2.2793312,-6.891452939,-5.494810982,9.103868521,0
16.59606433,-1.668760264,-7.009430455,-4.946082537,8.739600024,0
16.60610233,-1.245969735,-6.709809769,-3.886676404,7.853676922,0
16.61614033,-1.33915915,-6.060960621,-3.241780558,7.002694628,0
16.62617833,-0.9314702243,-5.523775749,-2.54294327,6.151934312,0
16.63621633,-0.2861633188,-4.873672957,-1.32301411,5.058156174,0
16.64625333,0.1564638895,-4.08911198,0.1066239774,4.093493179,0
16.65629133,0.6331973219,-3.208116091,1.526563581,3.608787063,0
16.66632933,0.8393175209,-2.027189467,2.409192305,3.258551611,0
16.67636733,0.9505531973,-0.5408842586,2.693485976,2.907055876,0
16.68640433,1.586578817,1.007721717,2.913164699,3.466881014,0
16.69644233,2.865936738,2.641044931,3.523354982,5.253831177,0
16.70648033,4.098967754,4.147321304,4.563034656,7.40426201,0
16.71651833,5.159909366,5.246206083,5.50166158,9.187797509,0
16.72655533,6.010960495,5.927468687,6.344839432,10.56046962,0
16.73659333,6.380923769,6.338867086,6.87972167,11.32378004,0
16.74663133,6.527553812,6.403489929,6.951729546,11.48652192,0
16.75666933,6.545233453,6.090734643,6.635962944,11.13432232,0
16.76670633,6.218066534,5.590762036,6.115991106,10.35984164,0
16.77674433,5.842106355,5.067596449,5.673766186,9.591786235,0
16.78678233,5.726537308,4.653611827,5.337352481,9.106956905,0
16.79682033,5.702490633,4.315298361,4.927497747,8.684493849,0
16.80685833,5.496963342,3.978469504,4.286109645,8.025930567,0
16.81689533,5.026536716,3.539982124,3.325748913,6.989860559,0
16.82693333,4.262431346,2.967268108,2.163369219,5.626114768,0
16.83697133,3.42487676,2.382060055,1.044143146,4.300491348,0
16.84700933,2.630731904,1.827698695,0.1076446089,3.205124059,0
16.85704633,2.00113939,1.193698404,-0.3731336349,2.359810045,0
16.86708433,1.535928481,0.5437757798,-0.2844687957,1.65399241,0
16.87712233,1.238960677,-0.08307819016,0.07978291869,1.244303363,0
16.88716033,1.072379935,-0.7004689533,0.2912223297,1.313569917,0
16.89719733,0.9279642338,-1.202137179,0.2641222394,1.541431793,0
16.90723533,0.8419043291,-1.658771173,-0.005373883545,1.860202565,0
16.91727333,0.9658968759,-2.134499177,-0.3211173892,2.364774807,0
16.92731133,0.7702355915,-2.281875324,-1.164589942,2.675161227,0
16.93734933,0.3060309881,-2.026442047,-2.394907849,3.152095484,0
16.94738633,-0.2646718776,-1.562555093,-3.480029452,3.82390306,0
16.95742433,-0.7220036638,-1.159662347,-4.023469675,4.249048632,0
16.96746233,-1.141102261,-1.025795022,-4.308555937,4.573622641,0
16.97750033,-1.762506918,-1.238820052,-4.477510648,4.968823539,0
16.98753733,-2.292462877,-1.583315194,-4.349650168,5.165436055,0
16.99757533,-2.335490198,-1.832774663,-3.796131685,4.819148597,0
17.00761333,-1.781096386,-1.730297969,-2.961739274,3.864988347,0
17.01765133,-1.431684905,-1.439053274,-2.352082842,3.106909991,0
17.02768833,-1.232605923,-1.172537331,-2.18632188,2.770228243,0
17.03772633,-0.8961653209,-0.8018648621,-1.913094941,2.259653025,0
17.04776433,-0.4862614703,-0.4276122893,-1.432659051,1.57220051,0
17.05780233,0.08198147178,-0.1181858962,-1.299734883,1.307669543,0
17.06784033,0.9012494749,0.369774775,-1.112339807,1.478608754,0
17.07787733,1.080073702,0.9927991842,-1.036161697,1.796062494,0
17.0879155,0.8143984419,1.36310876,-1.329032941,2.070661458,0
17.0979535,0.7360171008,1.529348609,-1.488936748,2.257777886,0
17.1079915,0.8565539432,1.697447581,-1.354523293,2.334469169,0
17.1180285,1.086106859,1.92055131,-0.8396554899,2.360755554,0
17.1280665,1.598246351,2.141090743,-0.2620488167,2.684647193,0
17.1381045,2.245162411,2.435274103,0.2578516853,3.322318723,0
17.1481425,2.787908569,3.032657521,0.7736275613,4.191413298,0
17.1581795,2.832032243,3.589757424,0.9066876778,4.661421193,0
17.1682175,2.397254922,3.917023745,0.8022227848,4.661916728,0
17.1782555,1.897996261,4.060196621,0.7481196678,4.543926655,0
17.1882935,1.571690052,3.989121376,0.8569579858,4.372376466,0
17.1983315,1.459313584,3.810270252,1.128334866,4.23330782,0
17.2083685,1.41889646,3.704315781,1.505953607,4.24300823,0
17.2184065,1.180287961,3.581778899,1.874214757,4.211282549,0
17.2284445,0.864597373,3.39054074,2.035109375,4.047834643,0
17.2384825,0.7072347665,3.12153403,2.17859303,3.871746803,0
17.2485195,0.5289514071,2.954401603,2.30164359,3.782306391,0
17.2585575,0.03777301311,2.84251747,2.18105003,3.583058973,0
17.2685955,-0.4544157797,2.61640681,2.136826369,3.408534176,0
17.2786335,-0.7529424512,2.302004071,2.42466433,3.427118643,0
17.2886705,-0.9823310602,1.855342284,2.678513596,3.403190325,0
17.2987085,-1.327662354,1.308520032,2.945072955,3.485450718,0
17.3087465,-1.734475951,0.6182758123,3.374659118,3.844345974,0
17.3187845,-2.070249386,-0.3620952612,3.95871644,4.482017553,0
17.3288225,-2.367946923,-1.18113113,4.327931855,5.072793857,0
17.3388595,-2.640064645,-1.732977602,4.498732533,5.496521364,0
17.3488975,-2.770389726,-2.198926138,4.434423101,5.672252078,0
17.3589355,-2.982102202,-2.440240728,4.01584666,5.565494834,0
17.3689735,-3.357723243,-2.563188669,3.590215554,5.543815406,0
17.3790105,-3.694008309,-2.759748671,3.33796287,5.692442906,0
17.3890485,-3.876829108,-3.122863102,3.266820089,5.954342229,0
17.3990865,-3.727512855,-3.55820848,3.311878441,6.125662289,0
17.4091245,-3.422138509,-3.950240316,3.423289826,6.247747095,0
17.4191615,-3.035179133,-4.414690795,3.510501047,6.405109272,0
17.4291995,-2.492135936,-4.734576468,3.651364565,6.477609053,0
17.4392375,-1.852176894,-4.827979891,3.546784775,6.270536764,0
17.4492755,-1.239060665,-4.755712983,3.051989293,5.785042433,0
17.4593125,-0.7135702246,-4.439834407,2.337782891,5.068189112,0
17.4693505,-0.5995805097,-3.939344029,1.298818039,4.191044794,0
17.4793885,-0.6680081356,-3.345482681,0.2405035812,3.419989943,0
17.4894265,-0.6231488818,-2.695937714,-0.5411241406,2.819434344,0
17.4994645,-0.4749862844,-2.166628165,-1.02579663,2.443797926,0
17.5095015,-0.2521167362,-1.909083751,-1.29508313,2.320647309,0
17.5195395,-0.1249935901,-1.715012032,-1.432864873,2.23830101,0
17.5295775,-0.1842656457,-1.473577282,-1.536652951,2.13698061,0
17.5396155,-0.3045042801,-1.27833612,-1.682987124,2.135254494,0
17.5496525,-0.4809779263,-1.287210147,-1.904899483,2.348806456,0
17.5596905,-0.6657850242,-1.371287553,-2.17464499,2.655707078,0
17.5697285,-0.6428493208,-1.452910298,-2.422204406,2.896770231,0
17.5797665,-0.4978097212,-1.579363938,-2.43406139,2.943953094,0
17.5898035,-0.1949058241,-1.596067679,-2.3893413,2.879995167,0
17.5998415,0.1442642587,-1.372557276,-2.351833751,2.726875069,0
17.6098795,0.448904779,-0.9356328571,-2.51525992,2.720929401,0
17.6199175,0.6598372364,-0.3963184297,-2.678741637,2.787132978,0
17.6299555,0.825501135,-0.001001628041,-2.79370199,2.913112414,0
17.6399925,1.183373537,0.1254125431,-2.795680103,3.038408872,0
17.6500305,1.259104335,0.2172799024,-2.715880812,3.001426806,0
17.6600685,1.341942424,0.2148319656,-2.626389762,2.957175244,0
17.6701065,1.484444917,0.1927809459,-2.384753575,2.815633289,0
17.6801435,1.475357174,0.2285682446,-2.183034575,2.644723462,0
17.6901815,1.27313239,0.2284349281,-2.005563979,2.386490199,0
17.7002195,0.9391815323,0.03944882512,-1.668722842,1.915268671,0
17.7102575,0.681046257,-0.2254028544,-1.26072109,1.450533736,0
17.7202945,0.4042805833,-0.3944584304,-0.7425882018,0.9329938267,0
17.7303325,0.3332544547,-0.4981731257,-0.09787244976,0.6073005938,0
17.7403705,0.5113015866,-0.45844188,0.5697778362,0.8923256426,0
17.7504085,0.4839149827,-0.363034324,1.015357888,1.181913395,0
17.7604455,0.273598237,-0.432247231,1.065446892,1.181892865,0
17.7704835,0.1236154014,-0.5906632134,0.9363473868,1.113961502,0
17.7805215,0.04419267118,-0.7486394852,0.9938179153,1.245025349,0
17.7905595,0.1968868607,-0.9856183648,1.206534358,1.570328996,0
17.8005975,0.4283366132,-1.272962236,1.446503504,1.973899059,0
17.8106345,0.6643162036,-1.503351012,1.679725547,2.350076211,0
17.8206725,0.9121633029,-1.646660128,1.824868643,2.621769828,0
17.8307105,0.8724384892,-1.58317223,1.707431409,2.48654484,0
17.8407485,0.7731469202,-1.467384203,1.41003442,2.176963396,0
17.8507855,0.724338457,-1.303897223,1.219343269,1.926554483,0
17.8608235,0.9090964383,-1.022592648,1.125860909,1.771924051,0
17.8708615,1.361606026,-0.7230868605,1.091666391,1.889063548,0
17.8808995,1.745015557,-0.3482601643,1.032120101,2.05709415,0
17.8909365,1.651384678,0.1830421159,0.7535587478,1.824397587,0
17.9009745,1.549875845,0.7296804732,0.2263503957,1.727941905,0
17.9110125,1.589416471,1.368282377,-0.09600894213,2.099442568,0
17.9210505,1.624731899,1.788437858,0.121829077,2.419319334,0
17.9310875,1.954034221,1.631062534,0.9049408221,2.701394569,0
17.9411255,2.189874063,1.18809224,1.897187591,3.131522367,0
17.9511635,2.498957883,0.783559788,2.599279146,3.6898521,0
17.9612015,2.67451527,0.5724425586,2.955953454,4.027205388,0
17.9712395,2.579945328,0.3610784304,2.711945636,3.760471335,0
17.9812765,2.466797027,0.02651156813,1.998844943,3.175086068,0
17.9913145,2.374756005,-0.2068186489,1.077475784,2.615949943,0
18.0013525,2.021151486,-0.1622179882,0.1510756803,2.033271223,0
18.0113905,2.237852806,0.8401848091,-1.316466106,2.728915298,0
18.0214275,2.518544301,-0.6673228419,-2.010898393,3.291215204,0
18.0314655,2.431940605,0.611443487,-1.38273377,2.863590565,0
18.0415035,1.948163032,0.4775635909,-1.533978435,2.525172473,0
18.0515415,1.090497533,-0.03951519102,-1.557092478,1.901389835,0
18.0615785,0.1400343829,-0.2996133766,-1.715221655,1.746815139,0
18.0716165,-0.8915758413,-0.5856398705,-1.929205189,2.204475947,0
18.0816545,-1.647500957,-0.7675754008,-2.000411412,2.702790635,0
18.091693,-1.947349684,-1.048672984,-2.140514792,3.077935899,0
18.10173,-1.892242016,-1.366068913,-2.329477506,3.297451982,0
18.111768,-1.613780649,-1.41686733,-2.292981525,3.141586429,0
18.121806,-1.394119468,-1.282827512,-2.195794954,2.900126031,0
18.131844,-1.367977152,-1.021993455,-2.200153468,2.785050699,0
18.141882,-1.43268244,-0.685826502,-2.18232063,2.699159183,0
18.151919,-1.464100115,-0.3574348842,-2.035105281,2.532390639,0
18.161957,-1.678149723,-0.1564681287,-1.849765502,2.502459027,0
18.171995,-1.846553042,-0.06748300821,-1.707891585,2.516188737,0
18.182033,-1.951702352,0.01884426042,-1.468822326,2.442731299,0
18.19207,-1.943617406,0.07267723605,-1.29553015,2.336948646,0
18.202108,-1.902320861,0.05100862429,-1.202459434,2.251074239,0
18.212146,-1.756583689,0.0222140108,-1.064059932,2.053850836,0
18.222184,-1.551265143,0.02927291572,-0.8764198583,1.781963023,0
18.232221,-1.351521333,0.06864587322,-0.7130989391,1.529651028,0
18.242259,-1.06556559,0.1777714357,-0.5888134468,1.230338972,0
18.252297,-0.7350335991,0.2762515573,-0.3792322809,0.8720128655,0
18.262335,-0.5676617289,0.3055915698,-0.2808756816,0.7032191653,0
18.272373,-0.4122240257,0.3542775339,-0.1588723576,0.5662875987,0
18.28241,-0.3998945868,0.3700248165,-0.03579139173,0.5459991476,0
18.292448,-0.4657862753,0.2810157225,0.06107767582,0.5474095112,0
18.302486,-0.7361317062,0.1382990755,0.2638368952,0.7941199094,0
18.312524,-1.183450136,-0.2157121177,0.5706952643,1.331457482,0
18.322561,-1.503558295,-0.6807413247,0.8688547307,1.865209061,0
18.332599,-1.658503663,-1.016627319,1.24660942,2.31045462,0
18.342637,-1.626197796,-1.074574834,1.676249378,2.570805773,0
18.352675,-1.467154115,-0.9338696292,2.218676863,2.819074441,0
18.362712,-1.197462988,-0.7879701966,2.651231657,3.013941595,0
18.37275,-1.448029627,-0.7605341837,2.730044523,3.18250611,0
18.382788,-1.963693237,-1.202442769,2.639136107,3.502427606,0
18.392826,-1.900340994,-1.754149639,3.511056533,4.360717238,0
18.402863,-1.543031679,-2.133268484,4.648541121,5.342351144,0
18.412901,-1.314076349,-2.261079994,5.355136203,5.959594209,0
18.422939,-0.9492153543,-1.830154526,5.390759779,5.771548005,0
18.432977,-0.3604311436,-0.8739451705,4.826359043,4.918072018,0
18.443014,-0.535121389,0.5203719337,3.561882285,3.639250921,0
18.453052,-1.177994099,1.027624908,1.910630339,2.468641599,0
18.46309,-0.2086105281,2.488995981,-1.435956881,2.881074715,0
18.473128,2.016487162,2.915003648,-5.442391863,6.494851494,0
18.483166,6.385422617,5.25241875,-6.036545572,10.23725584,0
18.493203,8.463192108,6.617675777,-6.29588245,12.45220419,0
18.503241,9.290839171,3.860510114,-4.7494933,11.12568728,0
18.513279,9.700882185,-0.6161339772,-1.099977039,9.782468284,0
18.523317,8.514031894,-3.019202201,1.072400401,9.096942543,0
18.533354,5.800339109,-3.755843784,0.3922873592,6.921284974,0
18.543392,4.518194405,-3.081293784,-2.056272202,5.842662701,0
18.55343,4.157631699,-2.643333238,-3.24946146,5.901873579,0
18.563468,3.504085482,-2.440668598,-3.468612764,5.501522769,0
18.573505,2.97655144,-2.476553691,-3.271706607,5.069244597,0
18.583543,2.640926524,-2.707476609,-2.837285966,4.728119515,0
18.593581,1.902745954,-3.034242409,-1.876179714,4.043157118,0
18.603619,0.3340233636,-3.861561736,-0.5215774834,3.910917247,0
18.613656,-2.101073568,-5.284350395,-0.2025902349,5.690334967,0
18.623694,-4.352618215,-5.841670153,-0.02796606302,7.284996747,0
18.633732,-8.290394021,-7.348588259,0.08249953508,11.07877198,0
18.64377,-10.55938617,-6.296030384,1.396925547,12.37303665,0
18.653808,-8.307854977,-3.253122694,0.6050055563,8.942555189,0
18.663845,-7.153911061,-0.9382125755,-0.2988745809,7.221358066,0
18.673883,-6.22662218,1.251753362,-0.8328095698,6.405566488,0
18.683921,-6.04821486,2.588732523,-2.189263029,6.933636252,0
18.693959,-6.157225671,2.911829195,-2.053478402,7.113856252,0
18.703996,-4.126118715,4.121923923,-1.187639666,5.951940898,0
18.714034,-3.353733687,4.764629402,-1.609030956,6.044683913,0
18.724072,-4.226015471,4.411126917,-1.213312451,6.228111635,0
18.73411,-4.154457246,4.485489759,-1.4767722,6.289673244,0
18.744147,-4.646564178,5.107853944,-1.736559899,7.120138402,0
