"Time (s)","Linear Acceleration x (m/s^2)","Linear Acceleration y (m/s^2)","Linear Acceleration z (m/s^2)","Absolute acceleration (m/s^2)"
2.364445833E-2,9.790519416E-2,4.065738612E-1,-2.641596615E-1,4.946393216E-1
3.368145833E-2,1.925379941E-1,3.191284588E-1,-1.696920455E-2,3.730975828E-1
4.371945831E-2,2.141574892E-1,6.405361623E-2,1.360775721E-1,2.616933350E-1
5.375745831E-2,1.232701233E-1,-2.523494554E-1,4.545935351E-1,5.343510579E-1
6.379545832E-2,-2.210042864E-2,-5.872069243E-1,1.050713663E0,1.203868598E0
7.383374998E-2,-7.602286667E-2,-8.338565138E-1,1.570620012E0,1.779871732E0
8.387174999E-2,-1.177874815E-1,-9.855198392E-1,1.889264029E0,2.134113824E0
9.390974999E-2,-2.621314086E-1,-1.146627880E0,1.985011016E0,2.307322496E0
1.039467500E-1,-1.736674212E-1,-1.156821623E0,1.923867266E0,2.251590971E0
1.139847500E-1,-4.594025776E-2,-1.076295523E0,1.727516595E0,2.035887066E0
1.240227500E-1,3.267979592E-2,-8.607425961E-1,1.466588105E0,1.700831107E0
1.340607500E-1,1.604280093E-1,-5.584260517E-1,1.146951815E0,1.285719747E0
1.440987500E-1,4.770108828E-1,-2.937883803E-1,7.542656761E-1,9.395571856E-1
1.541367500E-1,8.087643573E-1,-1.190683141E-1,3.152678347E-1,8.761682810E-1
1.641747500E-1,9.741179149E-1,-1.322078848E-1,-1.142709661E-1,9.896678688E-1
1.742117500E-1,9.978631653E-1,-1.190387857E-1,-3.220242923E-1,1.055272843E0
1.842497500E-1,8.103607933E-1,-1.737298402E-1,-2.252610594E-1,8.588417885E-1
1.942877500E-1,5.405699708E-1,-3.283685213E-1,-1.398618901E-1,6.477678036E-1
2.043257500E-1,2.041121189E-1,-5.231603247E-1,-3.302799761E-2,5.625382930E-1
2.143637500E-1,-1.388425742E-1,-6.504968941E-1,2.669604778E-2,6.656847217E-1
2.244017500E-1,-3.343334122E-1,-6.394631982E-1,1.319634712E-1,7.335573393E-1
2.344397500E-1,-1.770699160E-1,-6.739734650E-1,-5.068658888E-2,6.986867087E-1
2.444767500E-1,-2.534431770E-2,-7.614010334E-1,-4.612412345E-1,8.905713585E-1
2.545147500E-1,4.121863112E-2,-7.178170574E-1,-8.593407261E-1,1.120458293E0
2.645527500E-1,7.744520187E-2,-6.694959596E-1,-1.082327219E0,1.275011689E0
2.745907500E-1,1.347615100E-2,-6.826934177E-1,-1.236622961E0,1.412617519E0
2.846287500E-1,-1.370648745E-1,-6.447669151E-1,-1.412826465E0,1.559034886E0
2.946667500E-1,-2.413064770E-1,-4.851005057E-1,-1.493005241E0,1.588274524E0
3.047047500E-1,-3.401628669E-1,-3.340388587E-1,-1.375489070E0,1.455768840E0
3.147417500E-1,-1.991465903E-1,-1.214966628E-1,-1.239716138E0,1.261474100E0
3.247797500E-1,3.413399845E-2,1.682331651E-2,-1.136058453E0,1.136695633E0
3.348177500E-1,3.007812848E-1,1.268755165E-1,-9.722978228E-1,1.025636307E0
3.448557500E-1,5.474151599E-1,1.790513912E-1,-8.397554773E-1,1.018288770E0
3.548937500E-1,6.546361381E-1,2.161566523E-1,-6.857836711E-1,9.724049646E-1
3.649317500E-1,6.237149654E-1,3.044145253E-1,-5.114612156E-1,8.621375391E-1
3.749697500E-1,5.849141945E-1,3.612646642E-1,-4.122485840E-1,8.016144133E-1
3.850067500E-1,4.957949169E-1,3.628980839E-1,-4.111259186E-1,7.392781208E-1
3.950447500E-1,4.343789797E-1,3.437221402E-1,-4.024907506E-1,6.847107505E-1
4.050827500E-1,4.353835313E-1,3.436768243E-1,-3.350191444E-1,6.480049429E-1
4.151207500E-1,4.312630715E-1,2.675440300E-1,-2.450579774E-1,5.635787941E-1
4.251587500E-1,5.085942161E-1,1.865674022E-1,-2.370449531E-1,5.913254451E-1
4.351967500E-1,5.210076723E-1,7.191461295E-2,-1.934855354E-1,5.604082070E-1
4.452347500E-1,4.589424383E-1,-1.743464291E-2,-6.207170248E-2,4.634490529E-1
4.552717500E-1,3.926381191E-1,-7.350183964E-2,7.600971043E-2,4.066259818E-1
4.653097500E-1,3.640553941E-1,-1.122101149E-1,2.539398980E-1,4.578350267E-1
4.753477500E-1,3.039000434E-1,-7.703224227E-2,4.358549631E-1,5.368973380E-1
4.853857500E-1,2.763729601E-1,-8.736032546E-3,6.332978940E-1,6.910315144E-1
4.954237500E-1,2.277946579E-1,5.957581848E-3,8.218916488E-1,8.528961140E-1
5.054617500E-1,2.144587670E-1,-3.949706465E-2,1.036672159E0,1.059359120E0
5.154997500E-1,1.797230170E-1,-3.827704310E-2,1.208214848E0,1.222108266E0
5.255367500E-1,1.936514501E-1,-2.074168190E-2,1.205071385E0,1.220708050E0
5.355747500E-1,2.555496365E-1,-9.196530014E-2,1.111344026E0,1.144049290E0
5.456127500E-1,2.077565423E-1,-3.103719610E-1,9.316871560E-1,1.003760176E0
5.556507500E-1,1.555504082E-1,-5.785689788E-1,7.215551823E-1,9.378591972E-1
5.656887500E-1,7.340901509E-2,-7.193380643E-1,5.655976617E-1,9.180069985E-1
5.757267500E-1,3.123290241E-3,-7.263208093E-1,4.837272871E-1,8.726647473E-1
5.857647500E-1,-1.868799359E-2,-6.090146998E-1,5.031160694E-1,7.901733512E-1
5.958017500E-1,5.997503713E-2,-4.148482561E-1,5.277919042E-1,6.739884085E-1
6.058397500E-1,2.976523666E-1,-2.368936564E-1,5.206892914E-1,6.448510479E-1
6.158777500E-1,5.724160999E-1,-1.753753929E-1,4.771246111E-1,7.655485709E-1
6.259157500E-1,7.763747294E-1,-2.300531450E-1,4.034169495E-1,9.046697769E-1
6.359537500E-1,9.382800378E-1,-3.873097707E-1,2.341821563E-1,1.041738725E0
6.459917500E-1,1.112331329E0,-6.039362468E-1,2.977636099E-2,1.266059480E0
6.560297500E-1,1.210130396E0,-7.951774746E-1,-7.685521781E-2,1.450044660E0
6.660667500E-1,1.223633079E0,-8.969428544E-1,-7.201196909E-2,1.518871331E0
6.761047500E-1,1.174011414E0,-8.523566656E-1,4.491480231E-2,1.451493033E0
6.861427500E-1,1.031772777E0,-6.834268047E-1,3.383684295E-1,1.283012258E0
6.961807500E-1,8.063557430E-1,-5.426604965E-1,7.420087427E-1,1.222811095E0
7.062187500E-1,5.991402143E-1,-4.558400153E-1,1.147916021E0,1.372760106E0
7.162567500E-1,4.052680318E-1,-4.720406033E-1,1.319832348E0,1.459116834E0
7.262947500E-1,2.632058345E-1,-5.593560514E-1,1.252738472E0,1.396964632E0
7.363317500E-1,3.334697784E-1,-7.338110925E-1,1.025612735E0,1.304439456E0
7.463697500E-1,4.499777430E-1,-9.340928467E-1,6.849662304E-1,1.242653673E0
7.564077500E-1,5.723981197E-1,-1.079376421E0,1.431041712E-1,1.230110511E0
7.664457500E-1,8.376418550E-1,-1.275976476E0,-2.898686993E-1,1.553635642E0
7.764837500E-1,1.202653561E0,-1.446314054E0,-7.225024313E-1,2.014996202E0
7.865217500E-1,1.309313353E0,-1.537846222E0,-9.815130347E-1,2.245582396E0
7.965597500E-1,1.379749936E0,-1.553944776E0,-1.170827166E0,2.385223366E0
8.065967500E-1,1.587870467E0,-1.454303690E0,-1.373195207E0,2.553820064E0
8.166347500E-1,1.729345458E0,-1.265766945E0,-1.512758889E0,2.623211987E0
8.266727500E-1,1.828057129E0,-1.151489109E0,-1.625959815E0,2.703972144E0
8.367107500E-1,1.597513842E0,-1.337670741E0,-2.131379102E0,2.980635899E0
8.467487500E-1,1.555952271E0,-8.780018225E-1,-1.890889555E0,2.601410767E0
8.567867500E-1,4.568963148E-1,1.729577154E-2,-1.832761799E0,1.888933349E0
8.668247500E-1,-6.416485950E-1,6.342043586E-1,-1.742411208E0,1.962122551E0
8.768617500E-1,-7.701546076E-1,8.743682896E-1,-1.235182207E0,1.698038018E0
8.868997500E-1,-4.441466072E-1,7.700788131E-1,-5.504656523E-1,1.045609880E0
8.969377500E-1,-1.640161532E-1,7.514133313E-1,1.334246904E-1,7.805930059E-1
9.069757500E-1,-1.486172184E-1,8.499347489E-1,6.427890944E-1,1.075943295E0
9.170137500E-1,-2.183954050E-1,9.220121337E-1,9.318415225E-1,1.328958822E0
9.270517500E-1,-3.614773567E-1,9.584160212E-1,1.031362887E0,1.453594357E0
9.370897500E-1,-5.977320586E-1,1.005394525E0,9.789507848E-1,1.525269289E0
9.471267500E-1,-8.918712719E-1,1.083678949E0,7.604187012E-1,1.596255315E0
9.571647500E-1,-1.014510773E0,1.131233769E0,5.559409851E-1,1.618021115E0
9.672027500E-1,-1.028919043E0,1.200813369E0,3.845789748E-1,1.627429917E0
9.772407500E-1,-9.636188006E-1,1.243194354E0,2.528113854E-1,1.593112360E0
9.872787500E-1,-8.935368513E-1,1.303136500E0,1.674519771E-1,1.588903083E0
9.973167500E-1,-8.128332885E-1,1.341776071E0,6.795575559E-2,1.570248058E0
1.007354750E0,-7.479767033E-1,1.418890905E0,-6.267513514E-2,1.605194294E0
1.017391750E0,-7.309491728E-1,1.469107670E0,-2.201324666E-1,1.655603317E0
1.027429750E0,-8.021458939E-1,1.508048665E0,-4.044039595E-1,1.755332268E0
1.037467750E0,-8.483108309E-1,1.502197648E0,-6.047167039E-1,1.828089531E0
1.047505750E0,-8.943801659E-1,1.510647460E0,-6.869922906E-1,1.885187003E0
1.057543750E0,-9.032385515E-1,1.540782986E0,-6.611423349E-1,1.904458263E0
1.067581750E0,-8.363345638E-1,1.535780254E0,-5.133609760E-1,1.822530105E0
1.077620083E0,-8.733367677E-1,1.577706545E0,-3.094557023E-1,1.829655127E0
1.087657083E0,-8.978099965E-1,1.594456917E0,-1.489788687E-1,1.835905867E0
1.097695083E0,-8.854675475E-1,1.579659222E0,-5.247291327E-3,1.810912359E0
1.107733083E0,-9.078875265E-1,1.561923740E0,4.446281254E-2,1.807164207E0
1.117771083E0,-8.866213493E-1,1.489320618E0,-1.194001436E-3,1.733255534E0
1.127809083E0,-8.016219833E-1,1.382179600E0,-7.900874734E-2,1.599768931E0
1.137847083E0,-7.588908237E-1,1.301448994E0,-1.419101697E-1,1.513216198E0
1.147885083E0,-7.046511742E-1,1.213168024E0,-1.411406761E-1,1.410046320E0
1.157922083E0,-6.576841454E-1,1.139710624E0,-2.249189973E-2,1.316052669E0
1.167960083E0,-6.083738449E-1,1.060979911E0,2.513144982E-1,1.248581629E0
1.177998083E0,-5.680134389E-1,9.204599172E-1,5.318802774E-1,1.205314214E0
1.188036083E0,-5.486379589E-1,7.817289517E-1,7.572179353E-1,1.218803826E0
1.198074083E0,-5.596302858E-1,6.399421582E-1,8.668105441E-1,1.214113892E0
1.208112083E0,-5.955140635E-1,5.075662391E-1,8.486075771E-1,1.154294290E0
1.218150083E0,-6.997210944E-1,4.139042962E-1,7.377069461E-1,1.097787737E0
1.228187083E0,-8.254169351E-1,3.476827517E-1,4.767088741E-1,1.014617052E0
1.238225083E0,-8.315360463E-1,2.576503949E-1,1.022175157E-1,8.765183071E-1
1.248263083E0,-6.240231867E-1,8.216975212E-2,-2.765481573E-1,6.874850464E-1
1.258301083E0,-2.695236048E-1,-1.564624277E-1,-5.035908633E-1,5.922222745E-1
1.268339083E0,7.375012703E-2,-3.558046073E-1,-2.497076833E-1,4.408967305E-1
1.278377083E0,3.018744218E-1,-3.403736591E-1,5.675120401E-1,7.273598215E-1
1.288415083E0,4.039575977E-1,-9.492450289E-2,1.827699280E0,1.874213718E0
1.298452083E0,4.430787595E-1,8.649040595E-2,3.108117886E0,3.140731789E0
1.308490083E0,2.842581497E-1,1.978329402E-1,4.003649368E0,4.018600357E0
1.318528083E0,-3.715467006E-2,2.340410192E-1,4.255442753E0,4.262035745E0
1.328566083E0,-2.559036123E-1,1.149949244E-1,3.840212674E0,3.850447230E0
1.338604083E0,-2.800609452E-1,-9.968362480E-2,2.900873852E0,2.916065854E0
1.348642083E0,-1.729022399E-1,-2.697605632E-1,1.845717475E0,1.873322968E0
1.358680083E0,-5.879623845E-2,-3.775737181E-1,8.394876748E-1,9.223656902E-1
1.368717083E0,7.886899889E-2,-3.802992515E-1,4.942885280E-2,3.915240110E-1
1.378755083E0,2.737178126E-1,-3.574015550E-1,-5.395646882E-1,7.027000535E-1
1.388793083E0,3.926010624E-1,-2.961576721E-1,-9.282261890E-1,1.050451721E0
1.398831083E0,3.833623885E-1,-1.909088136E-1,-1.134839893E0,1.212961038E0
1.408869083E0,2.578899845E-1,-7.297354370E-2,-1.184119642E0,1.214072365E0
1.418907083E0,1.118748502E-1,1.167835146E-3,-1.101389726E0,1.107057666E0
1.428944083E0,2.452475734E-2,-2.618777856E-2,-1.032459825E0,1.033083033E0
1.438982083E0,3.714758031E-2,-1.337147123E-1,-1.010718123E0,1.020201299E0
1.449020083E0,1.184912670E-1,-1.935283662E-1,-1.168566633E0,1.190395474E0
1.459058083E0,1.804858594E-1,-1.848230316E-1,-1.393014929E0,1.416765786E0
1.469096083E0,3.867695611E-1,-2.057557712E-1,-1.595841392E0,1.654882436E0
1.479134083E0,4.399708182E-1,-1.807462066E-1,-1.840625719E0,1.901090884E0
1.489172083E0,3.333153389E-1,-1.017111468E-1,-2.080735783E0,2.109716965E0
1.499209083E0,1.749807789E-1,-7.203082636E-2,-2.267826803E0,2.275707609E0
1.509247083E0,-4.258541778E-2,-6.544817716E-2,-2.345253879E0,2.346553374E0
1.519285083E0,-1.909588804E-1,-5.952816367E-2,-2.382468483E0,2.390850260E0
1.529323083E0,-2.537503751E-1,-1.294452216E-1,-2.378433319E0,2.395431145E0
1.539361083E0,-3.067654715E-1,-1.393066970E-1,-2.397980561E0,2.421533023E0
1.549399083E0,-3.058480433E-1,-6.316235438E-2,-2.407531403E0,2.427702611E0
1.559437083E0,-2.308765791E-1,-1.367634505E-2,-2.388686412E0,2.399857040E0
1.569474083E0,-5.737054110E-2,4.930109113E-2,-2.344920003E0,2.346139765E0
1.579512083E0,2.677191541E-2,1.325014150E-1,-2.344124781E0,2.348019240E0
1.589550083E0,1.261120163E-1,2.437943941E-1,-2.373936226E0,2.389751692E0
1.599588083E0,2.374691686E-1,3.692366119E-1,-2.373159131E0,2.413423200E0
1.609626083E0,3.135927536E-1,5.039702015E-1,-2.342608014E0,2.416637889E0
1.619664083E0,3.493699658E-1,6.958416130E-1,-2.311241210E0,2.438870815E0
1.629701083E0,4.799159257E-1,8.110251832E-1,-2.304308751E0,2.489562203E0
1.639739083E0,5.412893245E-1,8.349781559E-1,-2.254501584E0,2.464337648E0
1.649777083E0,4.494503242E-1,8.693644617E-1,-2.193570673E0,2.401989271E0
1.659815083E0,3.579530936E-1,8.859462883E-1,-2.070596126E0,2.280438458E0
1.669853083E0,2.960481830E-1,8.902356595E-1,-1.857563934E0,2.081035277E0
1.679891083E0,2.344464505E-1,8.693380031E-1,-1.624704418E0,1.857519353E0
1.689929083E0,1.743399972E-1,8.385225919E-1,-1.393028378E0,1.635250022E0
1.699966083E0,2.052165118E-1,7.880289611E-1,-1.096651143E0,1.365923566E0
1.710004083E0,2.110140261E-1,6.582394847E-1,-8.194381571E-1,1.072047122E0
1.720042083E0,2.289404199E-1,4.944974197E-1,-5.279117721E-1,7.587043252E-1
1.730080083E0,2.302770934E-1,2.996689251E-1,-1.389356911E-1,4.026563431E-1
1.740118083E0,2.166416788E-1,8.663424745E-2,3.667666018E-1,4.346916724E-1
1.750156083E0,1.751466206E-1,-1.083392581E-1,9.407906860E-1,9.630684547E-1
1.760194083E0,1.068768695E-1,-2.147794868E-1,1.535173606E0,1.553805294E0
1.770231083E0,9.649075270E-2,-1.721284340E-1,2.032448307E0,2.042005089E0
1.780269083E0,2.009416124E-1,-6.514529139E-3,2.394652911E0,2.403077721E0
1.790307083E0,3.611746171E-1,2.536625938E-1,2.629472998E0,2.666255814E0
1.800345083E0,5.403271651E-1,4.253429849E-1,2.725101871E0,2.810524917E0
1.810383083E0,6.719447735E-1,5.315816309E-1,2.662809144E0,2.797256039E0
1.820421083E0,7.091909525E-1,6.606771889E-1,2.368773719E0,2.559401314E0
1.830458083E0,8.058354869E-1,7.003970325E-1,2.013947132E0,2.279453857E0
1.840496083E0,1.110716328E0,5.844957896E-1,1.909394823E0,2.284975859E0
1.850534083E0,1.497333642E0,4.778559516E-1,2.094728170E0,2.618824250E0
1.860572083E0,1.798097166E0,3.647659770E-1,2.490011643E0,3.092954189E0
1.870610083E0,1.904550405E0,5.870976544E-1,3.012794822E0,3.612330070E0
1.880648083E0,1.920706261E0,9.534374095E-1,3.592100696E0,4.183460630E0
1.890686083E0,1.613628037E0,1.139140008E0,4.094564216E0,4.546085296E0
1.900723083E0,8.908776838E-1,1.125271071E0,4.302107627E0,4.535198790E0
1.910761083E0,-2.369350255E-2,9.590334141E-1,4.215449553E0,4.323230436E0
1.920799083E0,-7.724338523E-1,6.509518806E-1,3.844656558E0,3.975144835E0
1.930837083E0,-1.074755074E0,1.793112634E-1,3.303254675E0,3.478324661E0
1.940875083E0,-1.072969042E0,-2.075276969E-1,2.658679841E0,2.874527580E0
1.950913083E0,-9.490411073E-1,-4.591941974E-1,1.913587276E0,2.184800814E0
1.960951083E0,-8.117595935E-1,-6.032696642E-1,1.120377975E0,1.509349108E0
1.970988083E0,-6.927307481E-1,-6.629823806E-1,2.489247411E-1,9.906488041E-1
1.981026083E0,-6.468192878E-1,-6.427276987E-1,-5.889017397E-1,1.085485764E0
1.991064083E0,-5.550074771E-1,-5.522109731E-1,-1.302389519E0,1.519601499E0
2.001102083E0,-3.665093243E-1,-3.987640277E-1,-1.826416401E0,1.905029843E0
2.011140083E0,-2.630641857E-1,-1.892028154E-1,-2.193395256E0,2.217201665E0
2.021178083E0,-2.658983311E-1,5.126794830E-2,-2.451581987E0,2.466492361E0
2.031215083E0,-4.087575039E-1,3.381401689E-1,-2.597174733E0,2.650799514E0
2.041253083E0,-6.355537498E-1,6.089140546E-1,-2.680496972E0,2.821306242E0
2.051291083E0,-9.665655050E-1,7.558158461E-1,-2.696379763E0,2.962426421E0
2.061329083E0,-1.160862049E0,7.387353983E-1,-2.560621449E0,2.906907789E0
2.071367083E0,-1.315658020E0,6.867483886E-1,-2.328846007E0,2.761539987E0
2.081403958E0,-1.442626508E0,6.391383854E-1,-2.059206920E0,2.594224789E0
2.091441958E0,-1.474211705E0,5.750790681E-1,-1.798471972E0,2.395520303E0
2.101478958E0,-1.436727544E0,5.178598237E-1,-1.605489882E0,2.215843540E0
2.111516958E0,-1.425659057E0,4.653510962E-1,-1.471245412E0,2.100861360E0
2.121554958E0,-1.599428074E0,5.285689261E-1,-1.427970754E0,2.208315138E0
2.131592958E0,-1.862339062E0,7.527441575E-1,-1.366218309E0,2.429296816E0
2.141630958E0,-1.908315134E0,9.264758981E-1,-1.181735147E0,2.428275561E0
2.151668958E0,-1.661474048E0,9.407891511E-1,-9.456561542E-1,2.130691391E0
2.161705958E0,-1.225227907E0,8.578528290E-1,-5.975573730E-1,1.610642640E0
2.171743958E0,-9.407728520E-1,9.862224553E-1,-2.677252936E-1,1.389015883E0
2.181781958E0,-7.308417302E-1,1.188104446E0,5.102865100E-3,1.394900659E0
2.191819958E0,-6.013984090E-1,1.262174124E0,2.082047313E-1,1.413546170E0
2.201857958E0,-6.991571304E-1,1.236065575E0,3.324411070E-1,1.458490963E0
2.211895958E0,-1.045992036E0,1.249419300E0,4.859235013E-1,1.700373363E0
2.221933958E0,-1.436386651E0,1.299900651E0,6.432755828E-1,2.041262303E0
2.231970958E0,-1.639480332E0,1.359112773E0,7.876328123E-1,2.270561326E0
2.242008958E0,-1.656358612E0,1.399613805E0,9.318584794E-1,2.360254833E0
2.252046958E0,-1.588891684E0,1.426716819E0,1.000644540E0,2.358259349E0
2.262084958E0,-1.618925614E0,1.515320847E0,9.518770069E-1,2.413128105E0
2.272122958E0,-1.692425115E0,1.608255615E0,8.257204056E-1,2.476409312E0
2.282160958E0,-1.594795617E0,1.651521210E0,5.743755019E-1,2.366601484E0
2.292197958E0,-1.523840532E0,1.635955776E0,2.462209886E-1,2.249236769E0
2.302235958E0,-1.489411249E0,1.679364190E0,-2.237472153E-1,2.255808673E0
2.312273958E0,-1.563920272E0,1.667089714E0,-7.523185533E-1,2.406453394E0
2.322311958E0,-1.723422667E0,1.526314635E0,-1.233188891E0,2.611623422E0
2.332349958E0,-1.971348119E0,1.425906979E0,-1.529647402E0,2.873890272E0
2.342387958E0,-2.113683966E0,1.260367772E0,-1.586533794E0,2.928015763E0
2.352425958E0,-2.119209585E0,1.116837559E0,-1.335853719E0,2.742787005E0
2.362462958E0,-2.263038811E0,1.058531097E0,-1.023116559E0,2.699740772E0
2.372500958E0,-2.580820656E0,9.962443636E-1,-7.859786350E-1,2.875917333E0
2.382538958E0,-3.055458154E0,9.428985342E-1,-7.015132660E-1,3.273683405E0
2.392576958E0,-3.457818511E0,8.558269881E-1,-6.830571145E-1,3.627053310E0
2.402614958E0,-3.432343947E0,7.282815269E-1,-7.466876847E-1,3.587327898E0
2.412652958E0,-3.316157141E0,4.619355183E-1,-8.060299069E-1,3.443830254E0
2.422689958E0,-3.503521811E0,-8.456941288E-2,-9.288342994E-1,3.625541369E0
2.432727958E0,-3.516322535E0,-6.265200940E-1,-9.148185235E-1,3.686996682E0
2.442765958E0,-3.000808907E0,-8.554777631E-1,-5.058677691E-1,3.161107163E0
2.452803958E0,-2.355169587E0,-8.494788853E-1,3.383690143E-1,2.526446467E0
2.462841958E0,-1.839219464E0,-8.149952234E-1,1.708851698E0,2.639530181E0
2.472879958E0,-1.580659389E0,-8.205324635E-1,3.554507192E0,3.975711132E0
2.482917958E0,-1.469204149E0,-9.240210908E-1,5.621119611E0,5.882972164E0
2.492954958E0,-1.377734985E0,-9.020224037E-1,7.534444347E0,7.712305085E0
2.502992958E0,-9.615500557E-1,-9.357441004E-1,9.028245394E0,9.127398886E0
2.513030958E0,-4.003547627E-1,-1.161611662E0,9.662413938E0,9.740219130E0
2.523068958E0,1.819016165E-1,-1.459798611E0,9.215277357E0,9.331957830E0
2.533106958E0,7.464543808E-1,-1.776118944E0,8.008043087E0,8.236537302E0
2.543144958E0,1.066953135E0,-1.819206199E0,6.510786336E0,6.843846791E0
2.553181958E0,1.204499527E0,-1.488618513E0,4.846523166E0,5.211102665E0
2.563219958E0,1.373755955E0,-1.018347277E0,3.340886185E0,3.753099666E0
2.573257958E0,1.457243962E0,-5.001481690E-1,2.147413337E0,2.642932499E0
2.583295958E0,1.374806407E0,-1.719438082E-1,1.244988572E0,1.862700694E0
2.593333958E0,1.403583772E0,-7.952110961E-2,7.215388101E-1,1.580186465E0
2.603371958E0,1.369822825E0,-1.264460385E-4,5.879235005E-1,1.490660468E0
2.613408958E0,1.047002435E0,-2.161715627E-3,6.205468708E-1,1.217085531E0
2.623446958E0,5.803852701E-1,-9.985363260E-2,5.652287024E-1,8.162728072E-1
2.633484958E0,1.365772167E-1,-2.826409560E-1,4.407824117E-1,5.411361941E-1
2.643522958E0,-2.421700376E-1,-3.729604112E-1,2.744735652E-1,5.225720366E-1
2.653560958E0,-4.937997007E-1,-4.732126777E-1,1.002183527E-1,6.912395395E-1
2.663598958E0,-6.007429361E-1,-5.577118143E-1,-1.163286012E-1,8.279292764E-1
2.673636958E0,-5.733820599E-1,-6.456882901E-1,-4.926992548E-1,9.941996330E-1
2.683673958E0,-3.652308306E-1,-7.171399498E-1,-8.122221082E-1,1.143410696E0
2.693711958E0,7.836467654E-2,-6.879686294E-1,-9.782958966E-1,1.198542748E0
2.703749958E0,5.329634741E-1,-5.518464723E-1,-1.058904442E0,1.307617380E0
2.713787958E0,9.459023219E-1,-5.682141446E-1,-1.103904029E0,1.560833951E0
2.723825958E0,1.240578894E0,-7.877006400E-1,-1.247821548E0,1.927839959E0
2.733863958E0,1.318871358E0,-9.361126211E-1,-1.437573051E0,2.163872634E0
2.743900958E0,1.194576218E0,-1.047462903E0,-1.677963197E0,2.310790203E0
2.753938958E0,9.674206603E-1,-1.036660026E0,-1.944538928E0,2.406615546E0
2.763976958E0,7.401282781E-1,-1.029288587E0,-2.227250635E0,2.562785644E0
2.774014958E0,7.144940847E-1,-1.082915449E0,-2.417693864E0,2.743802341E0
2.784052958E0,8.194957522E-1,-1.090842811E0,-2.504184709E0,2.851745497E0
2.794090958E0,9.056685081E-1,-1.017143774E0,-2.516108935E0,2.861052443E0
2.804127958E0,1.046129738E0,-9.817983788E-1,-2.500227313E0,2.882612028E0
2.814165958E0,1.316924820E0,-1.049960249E0,-2.407744827E0,2.938357135E0
2.824203958E0,1.683396429E0,-1.153598784E0,-2.288672712E0,3.066371875E0
2.834241958E0,1.975445263E0,-1.295401950E0,-2.186455196E0,3.218856400E0
2.844279958E0,2.100288287E0,-1.393203356E0,-2.119976447E0,3.293406537E0
2.854317958E0,2.014100036E0,-1.494042390E0,-2.105415126E0,3.274375433E0
2.864355958E0,1.914727191E0,-1.692867311E0,-2.239376591E0,3.398056424E0
2.874392958E0,1.765878423E0,-1.929172445E0,-2.540755534E0,3.646295601E0
2.884430958E0,1.596686022E0,-2.116803309E0,-2.883100655E0,3.916954415E0
2.894468958E0,1.406324362E0,-2.331915503E0,-3.169922955E0,4.178993858E0
2.904506958E0,1.222091168E0,-2.430773939E0,-3.348896286E0,4.314774050E0
2.914544958E0,1.189974459E0,-2.453494027E0,-3.381561171E0,4.344033622E0
2.924582958E0,1.641209353E0,-2.456428159E0,-3.144878161E0,4.314842534E0
2.934619958E0,2.341396763E0,-2.460869412E0,-2.604326463E0,4.280249221E0
2.944657958E0,2.677287143E0,-2.465914975E0,-1.758652434E0,4.042457358E0
2.954695958E0,2.350475442E0,-2.391446882E0,-7.951786441E-1,3.446166286E0
2.964733958E0,1.914491256E0,-2.094722177E0,3.260039073E-1,2.856469204E0
2.974771958E0,1.581391460E0,-1.397795759E0,1.897755355E0,2.838328262E0
2.984809958E0,1.256908998E0,-5.809129813E-1,3.581780945E0,3.840108704E0
2.994846958E0,8.492779604E-1,-1.141873509E-2,4.875958634E0,4.949381380E0
3.004884958E0,6.030514169E-1,1.590922129E-1,5.542633604E0,5.577613165E0
3.014922958E0,4.403251594E-1,6.691582829E-2,5.556983256E0,5.574802856E0
3.024960958E0,3.509042752E-1,-2.394923052E-1,4.941604155E0,4.959832860E0
3.034998958E0,4.645036885E-1,-7.339989343E-1,3.815153262E0,3.912788331E0
3.045036958E0,5.509287518E-1,-1.037074155E0,2.524052378E0,2.783861652E0
3.055073958E0,7.264770761E-1,-1.188456522E0,1.301823508E0,1.906552463E0
3.065111958E0,9.045464274E-1,-1.151070594E0,1.192551327E-1,1.468805480E0
3.075153000E0,9.291842553E-1,-9.665204814E-1,-9.287091690E-1,1.630964727E0
3.085191000E0,8.714403695E-1,-6.898583034E-1,-1.836420402E0,2.146567653E0
3.095229000E0,7.722388476E-1,-2.998335242E-1,-2.502580233E0,2.636126097E0
3.105267000E0,6.651105478E-1,1.139622331E-1,-2.909692038E0,2.986915999E0
3.115305000E0,5.215929785E-1,5.211021048E-1,-3.102336159E0,3.188745252E0
3.125342000E0,2.841413516E-1,9.198974150E-1,-3.108235999E0,3.253932788E0
3.135380000E0,6.327447474E-2,1.274992682E0,-2.939173114E0,3.204426406E0
3.145418000E0,-1.789856100E-1,1.591737523E0,-2.644264115E0,3.091568680E0
3.155456000E0,-4.245520028E-1,1.808155546E0,-2.286720327E0,2.945973648E0
3.165494000E0,-5.897490013E-1,1.917937605E0,-1.939436647E0,2.790645633E0
3.175532000E0,-6.914186329E-1,1.947247943E0,-1.642163034E0,2.639419199E0
3.185569000E0,-7.478840250E-1,1.969872282E0,-1.390184292E0,2.524349359E0
3.195607000E0,-8.296856949E-1,1.919579503E0,-1.283348646E0,2.453598901E0
3.205645000E0,-9.248976615E-1,1.798997345E0,-1.331011055E0,2.421449475E0
3.215683000E0,-1.115637637E0,1.661491005E0,-1.466260076E0,2.480951090E0
3.225721000E0,-1.390616694E0,1.541457901E0,-1.674099357E0,2.666930052E0
3.235759000E0,-1.750369560E0,1.461440509E0,-1.918537529E0,2.979998022E0
3.245796000E0,-2.002920745E0,1.410965881E0,-2.047891973E0,3.193176750E0
3.255834000E0,-2.222912586E0,1.345594595E0,-2.029494878E0,3.297091846E0
3.265872000E0,-2.396102436E0,1.309850858E0,-1.952782917E0,3.357138257E0
3.275910000E0,-2.525986052E0,1.315534936E0,-1.705064456E0,3.319409963E0
3.285948000E0,-2.645142075E0,1.369950002E0,-1.311463228E0,3.254761958E0
3.295986000E0,-2.796979062E0,1.391327130E0,-7.635685962E-1,3.215885579E0
3.306023000E0,-2.950460579E0,1.379733271E0,-1.225225568E-1,3.259431439E0
3.316061000E0,-3.025005562E0,1.311004221E0,6.622457045E-1,3.362731047E0
3.326099000E0,-3.053880575E0,1.223168225E0,1.474637382E0,3.605118928E0
3.336137000E0,-3.088311320E0,1.158452996E0,2.186666281E0,3.957422087E0
3.346175000E0,-2.927478975E0,9.816861123E-1,2.705641168E0,4.105403136E0
3.356213000E0,-2.673793431E0,7.464330384E-1,3.007584368E0,4.092908174E0
3.366251000E0,-2.243143367E0,4.828192145E-1,3.063720562E0,3.827687323E0
3.376288000E0,-1.723486694E0,2.604697761E-1,2.879249094E0,3.365757899E0
3.386326000E0,-1.105797942E0,7.455492318E-2,2.543759249E0,2.774717759E0
3.396364000E0,-5.224379012E-1,-1.280753651E-1,2.259718469E0,2.322858631E0
3.406402000E0,-8.130144060E-2,-2.658044833E-1,2.115367087E0,2.133550998E0
3.416440000E0,1.203509009E-1,-3.253969663E-1,2.197771897E0,2.224987379E0
3.426478000E0,2.142758954E-1,-4.614830169E-1,2.420657233E0,2.473552541E0
3.436515000E0,2.939371920E-1,-5.818002963E-1,2.653522012E0,2.732410973E0
3.446553000E0,4.750792551E-1,-5.961940947E-1,2.851142113E0,2.951297858E0
3.456591000E0,8.587440178E-1,-5.961011240E-1,3.002614235E0,3.179382028E0
3.466629000E0,1.238860690E0,-5.902094695E-1,3.041846128E0,3.337057221E0
3.476667000E0,1.647944176E0,-6.652269074E-1,2.944539104E0,3.439266983E0
3.486705000E0,1.738015563E0,-8.460903507E-1,2.717418045E0,3.334805514E0
3.496742000E0,1.157597256E0,-1.043590877E0,2.833170111E0,3.233568649E0
3.506780000E0,1.022096220E-1,-1.196074859E0,3.324779445E0,3.534855051E0
3.516818000E0,-8.188782862E-1,-1.270344146E0,3.985297882E0,4.262268774E0
3.526856000E0,-1.291218705E0,-1.492818714E0,4.951688848E0,5.330569942E0
3.536894000E0,-1.446357762E0,-1.558134744E0,5.935098134E0,6.304373444E0
3.546932000E0,-1.299681673E0,-1.199429114E0,6.261024274E0,6.506014725E0
3.556969000E0,-7.101779625E-1,-1.217126297E0,5.813108844E0,5.981470019E0
3.567007000E0,1.091182534E-1,-1.262447481E0,4.878727875E0,5.040601761E0
3.577045000E0,4.847164898E-1,-8.573827860E-1,3.966254085E0,4.086713446E0
3.587083000E0,8.654160563E-1,-3.512331811E-1,3.179835155E0,3.314160725E0
3.597121000E0,1.007745691E0,-4.261655420E-2,2.048459153E0,2.283320487E0
3.607159000E0,1.447051680E0,-1.573690385E-1,9.232028461E-1,1.723666753E0
3.617196000E0,1.578730831E0,-3.461610138E-1,1.148954487E-1,1.620314614E0
3.627234000E0,1.232246904E0,-3.251814964E-1,1.596611470E-1,1.284393678E0
3.637272000E0,6.649699954E-1,1.320886016E-1,9.509958315E-1,1.167915050E0
3.647310000E0,4.165132508E-1,8.754296324E-1,1.530289426E0,1.811531412E0
3.657348000E0,8.005795710E-1,1.266130203E0,1.529138110E0,2.140625306E0
3.667386000E0,1.502311961E0,1.283414134E0,1.110309654E0,2.266468751E0
3.677423000E0,1.553708695E0,1.139915569E0,3.698527622E-1,1.962195015E0
3.687461000E0,2.016621063E0,9.096824755E-1,-4.007868719E-1,2.248313331E0
3.697499000E0,2.013234941E0,1.308815316E0,4.341382205E-1,2.440202544E0
3.707537000E0,1.779971382E0,1.273796926E0,1.365844672E0,2.579997752E0
3.717575000E0,2.262925082E0,-1.448827334E0,5.749713331E-1,2.747821429E0
3.727613000E0,2.573918602E0,-3.617199284E0,2.250435430E-1,4.445203284E0
3.737650000E0,2.268434329E0,-4.966751275E0,-5.120003289E-1,5.484209776E0
3.747688000E0,6.894396427E-1,-4.419097256E0,-8.514164041E0,9.617418411E0
3.757726000E0,-1.766037175E0,-9.595127396E-1,-1.056807514E1,1.075749804E1
3.767764000E0,-1.534698666E0,-5.981646795E-1,-6.634104114E0,6.835527659E0
3.777802000E0,-1.071646768E0,-3.467411307E-1,-6.692364017E0,6.786486008E0
3.787840000E0,-1.407100433E0,7.741910867E-2,-6.996665398E0,7.137173954E0
3.797877000E0,-2.213960206E0,1.326492034E-1,-5.992148248E0,6.389448821E0
3.807915000E0,-3.603387576E0,-2.924616471E-2,-2.842571265E0,4.589713363E0
3.817953000E0,-4.583132998E0,-6.008228968E-1,2.724672686E0,5.365625544E0
3.827991000E0,-3.614728836E0,-2.341478770E0,4.241301262E-1,4.327663775E0
3.838029000E0,-2.008064102E0,-3.258238716E0,1.855363626E0,4.253329890E0
3.848067000E0,-4.091751413E-1,-4.416697267E0,6.935832721E-1,4.489509639E0
3.858105000E0,1.025067336E0,-4.099049615E0,1.369909072E-1,4.227497759E0
3.868142000E0,1.769173037E0,-2.575005600E0,-4.055663860E-1,3.150414444E0
3.878180000E0,1.958312775E0,-2.239331275E0,-1.125742795E0,3.180705947E0
3.888218000E0,2.109296654E0,-2.584314660E0,-1.479805736E0,3.649334138E0
3.898256000E0,2.180670400E0,-2.469446400E0,-1.530740247E0,3.632720003E0
3.908294000E0,2.574648335E0,-2.233472803E0,-1.411579839E0,3.689142509E0
3.918332000E0,2.942314531E0,-2.554672200E0,-1.187661885E0,4.073586332E0
3.928369000E0,2.722508631E0,-3.421022276E0,-1.016827294E0,4.488806568E0
3.938407000E0,1.886311185E0,-4.320787143E0,-1.065348074E0,4.833460244E0
3.948445000E0,8.862446424E-1,-4.909701161E0,-1.262182310E0,5.146231557E0
3.958483000E0,3.296777129E-1,-5.171639466E0,-1.917637058E0,5.525565495E0
3.968521000E0,4.087072179E-1,-4.812050906E0,-2.698988206E0,5.532396664E0
3.978559000E0,1.124510202E0,-4.044831893E0,-2.829851816E0,5.062928949E0
3.988596000E0,2.135109041E0,-4.150516807E0,-2.794252798E0,5.439975100E0
3.998634000E0,2.510307620E0,-5.083653488E0,-2.559178941E0,6.220496282E0
4.008672000E0,2.050734012E0,-5.585677882E0,-2.407940708E0,6.418994146E0
4.018710000E0,1.284666608E0,-5.443507512E0,-2.052569160E0,5.957783353E0
4.028748000E0,5.273118478E-1,-5.477154729E0,-1.704461609E0,5.760422822E0
4.038786000E0,7.912627637E-2,-5.653689187E0,-1.647807351E0,5.889459352E0
4.048823000E0,5.919077933E-2,-5.353494304E0,-1.067588727E0,5.459226182E0
4.058861000E0,4.232530439E-1,-4.773787896E0,1.652218491E-1,4.795361537E0
4.068899000E0,1.109788082E0,-4.271849456E0,1.413845635E0,4.634575152E0
4.078935250E0,1.955902407E0,-4.002943609E0,2.016836241E0,4.890474434E0
4.088973250E0,2.351080629E0,-3.484909539E0,1.994470056E0,4.652965229E0
4.099011250E0,2.328092886E0,-2.596801096E0,1.226292100E0,3.696915570E0
4.109048250E0,2.497123611E0,-1.517158334E0,4.153341597E-1,2.951253666E0
4.119086250E0,3.019089350E0,5.217528999E-2,1.778290308E-1,3.024772045E0
4.129124250E0,3.226864311E0,1.886495518E0,3.985087967E-1,3.759032838E0
4.139162250E0,3.720589752E0,3.152291261E0,1.594956708E-1,4.879053921E0
4.149200250E0,4.103809249E0,3.856342803E0,-3.517567992E-2,5.631506681E0
4.159237250E0,3.990973189E0,4.269683647E0,-2.574710315E-1,5.850158697E0
4.169275250E0,3.439638056E0,4.418267244E0,-5.364399362E-1,5.624941173E0
4.179313250E0,2.551128495E0,4.442312164E0,-7.911908430E-1,5.183471512E0
4.189351250E0,1.487123526E0,4.457590939E0,-9.590410155E-1,4.795978840E0
4.199389250E0,2.909153509E-1,4.430697840E0,-1.036592052E0,4.559631364E0
4.209427250E0,-9.156692934E-1,4.522871301E0,-9.551730824E-1,4.712448480E0
4.219464250E0,-1.932319416E0,4.763527494E0,-6.713340318E-1,5.184181893E0
4.229502250E0,-2.726660739E0,4.941434001E0,-3.289684457E-1,5.653376779E0
4.239540250E0,-3.318073273E0,4.801093808E0,1.101545262E-1,5.837143653E0
4.249578250E0,-4.909423419E0,4.452930708E0,2.989362105E0,7.270991403E0
4.259616250E0,-4.800195091E0,4.620439403E0,3.883994286E0,7.712051919E0
4.269654250E0,-3.427390478E0,4.031958955E0,3.730675029E0,6.474691860E0
4.279691250E0,-2.975202488E0,3.623237996E0,4.451461887E0,6.464920445E0
4.289729250E0,-2.160758438E0,3.326286272E0,4.431149830E0,5.947112426E0
4.299767250E0,-1.751275586E0,3.173977122E0,4.256105828E0,5.590664877E0
4.309805250E0,-1.696114123E0,2.842915958E0,3.851770865E0,5.078888959E0
4.319843250E0,-1.894133590E0,2.542729847E0,3.311705655E0,4.584824040E0
4.329881250E0,-2.133582918E0,2.412839067E0,2.892481928E0,4.329020690E0
4.339918250E0,-2.100975920E0,2.364020664E0,2.520045866E0,4.043924416E0
4.349956250E0,-2.156828524E0,1.991401730E0,1.976138451E0,3.538744595E0
4.359994250E0,-2.221068959E0,1.687773947E0,1.384358711E0,3.114189663E0
4.370032250E0,-2.275349831E0,1.481858986E0,8.382077193E-1,2.841780267E0
4.380070250E0,-2.399378631E0,1.312341626E0,4.599384749E-1,2.773229481E0
4.390108250E0,-2.285725130E0,1.204778147E0,3.805058044E-1,2.611668896E0
4.400145250E0,-2.012350842E0,1.206352071E0,3.243684411E-1,2.368555703E0
4.410183250E0,-1.647207427E0,1.181074997E0,2.648034400E-1,2.044101592E0
4.420221250E0,-1.274894156E0,1.089252661E0,3.560890013E-1,1.714242062E0
4.430259250E0,-9.957855034E-1,9.885803450E-1,4.057558358E-1,1.460656587E0
4.440297250E0,-8.345520401E-1,9.374703446E-1,3.707760376E-1,1.308740855E0
4.450335250E0,-7.004531658E-1,9.044242937E-1,2.807704318E-1,1.177900665E0
4.460372250E0,-4.579486674E-1,8.124185016E-1,1.856993830E-1,9.509074953E-1
4.470410250E0,-1.909273785E-1,7.156154345E-1,1.897585201E-1,7.645698202E-1
4.480448250E0,4.542643368E-2,5.713991229E-1,2.924251020E-1,6.434850106E-1
4.490486250E0,1.477562159E-1,3.236919548E-1,4.260638005E-1,5.551024617E-1
4.500524250E0,2.334652877E-1,3.216440497E-2,6.260327286E-1,6.689226911E-1
4.510562250E0,3.421515781E-1,-2.385974071E-1,9.191624200E-1,1.009383960E0
4.520599250E0,5.638879359E-1,-4.530019595E-1,1.229060172E0,1.426102831E0
4.530637250E0,9.608507288E-1,-5.219329210E-1,1.339806436E0,1.729372540E0
4.540675250E0,1.311453872E0,-4.985573974E-1,1.163790042E0,1.822876299E0
4.550713250E0,1.505710363E0,-5.196759323E-1,7.694257522E-1,1.768966580E0
4.560751250E0,1.546985566E0,-6.131014650E-1,1.319266337E-1,1.669270015E0
4.570789250E0,1.421341473E0,-8.188215682E-1,-6.194236207E-1,1.753386998E0
4.580826250E0,1.126230160E0,-1.126352586E0,-1.309866353E0,2.062235289E0
4.590864250E0,7.302836135E-1,-1.377124828E0,-1.568371173E0,2.211238360E0
4.600902250E0,4.711426172E-1,-1.597159062E0,-1.194749880E0,2.049468153E0
4.610940250E0,3.430003014E-1,-1.844059789E0,-1.778114891E-1,1.884097301E0
4.620978250E0,4.500034708E-1,-2.129153798E0,1.098955531E0,2.437929917E0
4.631015250E0,9.135932395E-1,-2.331597999E0,2.002173178E0,3.206197011E0
4.641053250E0,1.571236016E0,-2.394418291E0,2.123558452E0,3.565322155E0
4.651091250E0,2.314477644E0,-2.181249274E0,1.446942045E0,3.494037270E0
4.661129250E0,2.786439456E0,-1.789512138E0,3.824739772E-1,3.333599387E0
4.671167250E0,2.853560814E0,-1.344090545E0,-6.113164562E-1,3.212957597E0
4.681205250E0,2.609493940E0,-9.466316159E-1,-1.506367882E0,3.158277099E0
4.691242250E0,2.217918479E0,-5.984772132E-1,-2.149711878E0,3.146203825E0
4.701280250E0,1.881364733E0,-2.757658364E-1,-2.422928292E0,3.079961292E0
4.711318250E0,1.680818977E0,7.411553233E-2,-2.141222890E0,2.723138081E0
4.721356250E0,1.435857478E0,4.747578775E-1,-1.374202098E0,2.043407239E0
4.731394250E0,1.296916817E0,6.987107686E-1,-6.290686029E-1,1.601848081E0
4.741432250E0,1.099085339E0,6.547534478E-1,-2.019715995E-1,1.295176894E0
4.751469250E0,7.929052466E-1,5.864551185E-1,1.526310396E-1,9.979602048E-1
4.761507250E0,4.987537542E-1,4.375421041E-1,5.776487732E-1,8.797025096E-1
4.771545250E0,1.989719778E-2,3.225721765E-1,7.555152261E-1,8.217371626E-1
4.781583250E0,-2.543755156E-1,3.561010612E-1,5.108601218E-1,6.726759493E-1
4.791621250E0,-3.855770946E-1,4.875442033E-1,-3.125746071E-2,6.223713319E-1
4.801659250E0,-4.619078171E-1,5.796038994E-1,-7.282058054E-1,1.039029935E0
4.811696250E0,-5.045135540E-1,6.416868943E-1,-1.422771410E0,1.640297071E0
4.821734250E0,-6.023047274E-1,6.834582335E-1,-2.008717382E0,2.205636340E0
4.831772250E0,-6.282736740E-1,6.333532964E-1,-2.470131109E0,2.626292426E0
4.841810250E0,-6.351792356E-1,3.829029070E-1,-2.721093020E0,2.820357162E0
4.851848250E0,-9.443954945E-1,1.227819356E-2,-2.746947654E0,2.904781406E0
4.861886250E0,-1.380559191E0,-4.705809556E-1,-2.769764659E0,3.130333270E0
4.871923250E0,-1.606332174E0,-9.731435495E-1,-2.672034296E0,3.266049403E0
4.881961250E0,-1.768784197E0,-1.391839200E0,-2.534269803E0,3.389444988E0
4.891999250E0,-1.929713312E0,-1.835831441E0,-2.418358693E0,3.597572698E0
4.902037250E0,-2.061981423E0,-2.257927175E0,-2.487392675E0,3.941715976E0
4.912075250E0,-2.182763264E0,-2.674580759E0,-2.619796441E0,4.333724852E0
4.922112250E0,-2.310555332E0,-3.135704464E0,-2.502818799E0,4.629839130E0
4.932150250E0,-2.374615672E0,-3.669709620E0,-2.027723172E0,4.818426044E0
4.942188250E0,-2.553336696E0,-4.079405602E0,-1.689831290E0,5.100647815E0
4.952226250E0,-2.450003824E0,-4.077461403E0,-1.610609704E0,5.022178197E0
4.962264250E0,-2.172620099E0,-4.034977580E0,-1.973269222E0,4.989500335E0
4.972302250E0,-2.010919736E0,-4.040395026E0,-2.795963693E0,5.309049173E0
4.982339250E0,-1.699551702E0,-3.816268326E0,-3.501106911E0,5.450699911E0
4.992377250E0,-1.203890832E0,-3.117860516E0,-3.506726670E0,4.844330632E0
5.002415250E0,-1.629671627E-1,-2.491956134E0,-2.581481391E0,3.591719622E0
5.012453250E0,4.680374533E-1,-2.477162386E0,-1.301239371E0,2.837008362E0
5.022491250E0,8.068619657E-1,-2.683233761E0,1.198123723E-1,2.804482956E0
5.032529250E0,1.594577808E0,-2.244350817E0,1.968060522E0,3.384235689E0
5.042566250E0,2.677747611E0,-1.166754435E0,3.465372237E0,4.532157645E0
5.052604250E0,3.594091088E0,-1.472546710E-1,4.294316797E0,5.601815013E0
5.062642250E0,4.099221523E0,7.271655858E-1,4.474125695E0,6.111479986E0
5.072680250E0,4.385341573E0,1.419121285E0,4.277501959E0,6.288254841E0
5.082720583E0,4.699963290E0,1.810053699E0,3.963910521E0,6.409253930E0
5.092758583E0,5.479284870E0,2.228638033E0,4.078617105E0,7.185019670E0
5.102795583E0,6.019283422E0,2.515853412E0,4.151300919E0,7.732696206E0
5.112833583E0,5.166305051E0,2.449454624E0,3.957178037E0,6.953401603E0
5.122871583E0,3.492582547E0,2.090585418E0,3.907584878E0,5.642508291E0
5.132909583E0,1.931206691E0,1.710076982E0,4.352676687E0,5.059616281E0
5.142947583E0,8.319289792E-1,1.323760507E0,4.806737541E0,5.054619026E0
5.152985583E0,2.974396741E-1,8.314404443E-1,4.746726982E0,4.828165347E0
5.163022583E0,3.197014859E-1,3.254320496E-1,4.187194052E0,4.211972114E0
5.173060583E0,3.079330873E-1,-5.710273862E-2,3.038478132E0,3.054575726E0
5.183098583E0,2.518234983E-1,-1.297731042E-1,1.376186643E0,1.405042992E0
5.193136583E0,3.941286474E-2,4.290160596E-2,-2.668423641E-1,2.731277521E-1
5.203174583E0,-5.757267934E-1,-5.381835759E-2,-1.613149735E0,1.713653939E0
5.213211583E0,-1.014623770E0,-5.585845113E-1,-2.646429339E0,2.888782840E0
5.223249583E0,-1.365105584E0,-1.032846910E0,-3.392324141E0,3.799756450E0
5.233287583E0,-1.948400137E0,-1.218608859E0,-3.846523574E0,4.480738136E0
5.243325583E0,-2.851107907E0,-1.539694673E0,-4.349228584E0,5.423584171E0
5.253363583E0,-3.957166343E0,-2.130270032E0,-4.933101718E0,6.673283183E0
5.263401583E0,-4.703063191E0,-2.382024679E0,-5.067111130E0,7.312213082E0
5.273438583E0,-5.277965820E0,-1.854624685E0,-4.992419382E0,7.498053561E0
5.283476583E0,-5.757257409E0,-1.310178595E0,-5.025824525E0,7.753805065E0
5.293514583E0,-5.519538857E0,-1.015845400E0,-4.557994648E0,7.229976921E0
5.303552583E0,-4.831077746E0,-4.483038314E-1,-3.462369107E0,5.960561076E0
5.313590583E0,-4.462792622E0,-9.294558585E-2,-2.469450493E0,5.101307931E0
5.323628583E0,-3.265857638E0,4.662280324E-1,-9.724714851E-1,3.439316135E0
5.333665583E0,-1.822742595E0,8.373522717E-1,7.093842030E-3,2.005891253E0
5.343703583E0,-3.134873575E-1,9.750692569E-1,7.595503896E-1,1.275127905E0
5.353741583E0,6.985791332E-1,1.195723003E0,1.568850060E0,2.092619606E0
5.363779583E0,1.057637351E0,6.094253205E-1,1.965732161E0,2.313892589E0
5.373817583E0,1.693982813E0,1.222519184E0,2.655387858E0,3.378641088E0
5.383854583E0,2.685903307E0,3.072522376E0,3.486683584E0,5.367628223E0
5.393892583E0,4.177640871E0,3.715174060E0,2.648819681E0,6.186392103E0
5.403930583E0,4.790365337E0,3.508369445E0,1.111077978E0,6.040757444E0
5.413968583E0,4.559385116E0,4.007753821E0,-2.228882593E-1,6.074517471E0
5.424006583E0,4.280171213E0,4.279410783E0,-1.485605004E0,6.232194196E0
5.434044583E0,3.825519206E0,3.738147478E0,-2.407733425E0,5.865622218E0
5.444081583E0,3.030865642E0,3.176652808E0,-2.741521438E0,5.176215741E0
5.454119583E0,2.419636894E0,3.092967750E0,-2.760464078E0,4.800130636E0
5.464157583E0,1.826774835E0,2.990555522E0,-2.624598759E0,4.378247055E0
5.474195583E0,8.417335904E-1,2.440900586E0,-2.211821002E0,3.399803414E0
5.484233583E0,-2.369835573E-1,1.670093137E0,-1.757046204E0,2.435689564E0
5.494271583E0,-1.210163140E0,1.439177235E0,-1.226889393E0,2.245213469E0
5.504308583E0,-1.602763326E0,1.570268448E0,-4.465875274E-1,2.287801061E0
5.514346583E0,-1.961385925E0,1.749792440E0,2.862273458E-1,2.643999702E0
5.524384583E0,-2.472619684E0,1.332344220E0,7.641416234E-1,2.910824908E0
5.534422583E0,-3.176351384E0,6.152452735E-1,1.430379807E0,3.537473852E0
5.544460583E0,-3.984386301E0,1.630139770E-2,2.323155497E0,4.612228463E0
5.554497583E0,-3.678061783E0,-1.991074871E-1,2.574885440E0,4.494198182E0
5.564535583E0,-2.603267532E0,-1.702386139E-1,2.451148416E0,3.579680375E0
5.574573583E0,-1.636200628E0,-6.431082062E-2,2.536582669E0,3.019195259E0
5.584611583E0,-1.304180521E-1,2.133317710E-1,1.830604469E0,1.847601698E0
5.594649583E0,1.216260617E0,4.747465120E-1,1.302700590E0,1.844370615E0
5.604687583E0,2.317786583E0,5.852334159E-1,2.831319760E-1,2.407238358E0
5.614724583E0,3.542451403E0,9.896424186E-1,-1.883756682E0,4.132419787E0
5.624762583E0,5.208548260E0,1.652928928E0,-7.285706717E0,9.107286719E0
5.634800583E0,7.230863342E0,1.680482177E0,-1.272754076E1,1.473430347E1
5.644838583E0,7.312791604E0,6.430959271E-1,-1.157765773E1,1.370885305E1
5.654876583E0,3.841378609E0,-2.912027050E-1,-4.137596215E0,5.653378731E0
5.664913583E0,5.720605892E-1,-1.540258929E0,2.720769669E0,3.178401875E0
5.674951583E0,-7.689076889E-1,-3.825454302E0,5.677118980E0,6.888758927E0
5.684989583E0,-1.032044672E0,-5.076514623E0,6.869645748E0,8.603961275E0
5.695027583E0,3.178277457E-1,-4.559049778E0,6.271990142E0,7.760400099E0
5.705065583E0,1.435656334E0,-3.639105878E0,2.961806517E0,4.906780874E0
5.715103583E0,1.448551784E0,-2.900863327E0,-1.568241803E0,3.601762438E0
5.725140583E0,9.353135991E-1,-1.853926966E0,-3.833166779E0,4.359475230E0
5.735178583E0,-7.886122209E-1,-3.407847914E-1,-3.921270724E-1,9.443554150E-1
5.745216583E0,-1.479886428E0,3.049016715E-1,3.710437231E0,4.006291716E0
5.755254583E0,-4.286523628E-1,-8.601672301E-1,2.957218791E0,3.109465146E0
5.765292583E0,-8.246421790E-1,-1.851364716E0,1.943392289E0,2.807910188E0
5.775329583E0,-1.562067874E0,-1.520474875E0,2.363259795E0,3.215104469E0
5.785367583E0,-1.528229452E0,-6.882121660E-1,3.109792528E0,3.532694554E0
5.795405583E0,-1.213883724E0,-7.204237461E-2,3.065755978E0,3.298115145E0
5.805443583E0,-9.425705785E-1,1.117797598E-1,1.833531293E0,2.064647915E0
5.815481583E0,-6.105440390E-1,1.901485294E-2,-2.583695293E-1,6.632348015E-1
5.825519583E0,-2.081591231E-1,-1.695195526E-2,-6.345969991E-1,6.680800406E-1
5.835556583E0,-1.469331619E0,5.419737045E-1,-6.800158314E-1,1.707364177E0
5.845594583E0,-2.363255117E0,1.175331715E0,3.586250849E-1,2.663642495E0
5.855632583E0,-2.230481806E0,1.292497492E0,1.305210946E0,2.889493808E0
5.865670583E0,-1.407979124E0,1.012350519E0,1.220090543E0,2.120348962E0
5.875708583E0,-1.058394565E0,1.924435616E-1,1.155353680E0,1.578630959E0
5.885745583E0,-1.257788712E0,-9.311952589E-1,5.409058933E-1,1.655818903E0
5.895783583E0,-1.058258325E0,-1.493390426E0,-2.224117112E-1,1.843798421E0
5.905821583E0,-8.981820256E-1,-1.298884551E0,-7.408749676E-1,1.744341637E0
5.915859583E0,-1.297701806E0,-1.132842338E0,-8.873078855E-1,1.937698899E0
5.925897583E0,-1.574389712E0,-5.446484402E-1,-5.869433610E-1,1.766308975E0
5.935935583E0,-1.293445033E0,4.202394255E-1,-3.834743627E-1,1.413030012E0
5.945972583E0,-1.238499332E0,4.495192117E-1,-5.334482814E-1,1.421448271E0
5.956010583E0,-9.323502302E-1,9.323728882E-2,-1.115729292E0,1.456990733E0
5.966048583E0,-5.697257960E-1,-9.713756438E-2,-1.592222550E0,1.693870077E0
5.976086583E0,-4.096068120E-1,-1.476512584E-1,-1.488953559E0,1.551309555E0
5.986124583E0,-7.729434371E-1,-1.273535264E-1,-1.456480608E0,1.653782404E0
5.996161583E0,-1.103600559E0,-1.452240792E-1,-1.796946434E0,2.113774045E0
6.006199583E0,-9.652092433E-1,8.556566879E-2,-1.091592132E0,1.459631374E0
6.016237583E0,-4.033918065E-1,7.106087561E-1,2.827081990E-1,8.646465634E-1
6.026275583E0,-1.668725181E-1,9.002028964E-1,5.374129494E-1,1.061614040E0
6.036313583E0,-1.449817121E-2,8.943776809E-1,-3.474181652E-1,9.595941926E-1
6.046351583E0,5.427023041E-1,1.363856327E0,-1.263734161E0,1.936918661E0
6.056388583E0,1.555492095E0,1.978922602E0,-1.935534800E0,3.175214211E0
6.066426583E0,2.138796880E0,2.127374052E0,-2.188430386E0,3.726848535E0
6.076464583E0,2.090969580E0,1.935396367E0,-1.845302907E0,3.394562667E0
6.086498833E0,2.476705134E0,1.616337929E0,-9.876122653E-1,3.118011323E0
6.096536833E0,3.031210628E0,1.427699297E0,1.478597116E-1,3.353867267E0
6.106573833E0,2.912167749E0,1.379820687E0,9.204546547E-1,3.351397156E0
6.116611833E0,2.576995407E0,1.557633930E0,1.123106285E0,3.213797834E0
6.126649833E0,2.902756655E0,1.633653143E0,5.002292991E-1,3.368241105E0
6.136687833E0,3.824298892E0,1.698886435E0,-6.804475021E-1,4.239632760E0
6.146725833E0,4.801631168E0,1.282564095E0,-1.423199426E0,5.169732018E0
6.156763833E0,3.915713092E0,6.464259895E-1,-9.022516876E-1,4.069979568E0
6.166800833E0,2.810953615E0,6.193864909E-1,-4.010119897E-1,2.906184865E0
6.176838833E0,2.024807165E0,9.770062201E-1,-7.081615502E-1,2.357091002E0
6.186876833E0,1.666897341E0,1.072627053E0,-1.655482407E0,2.582575757E0
6.196914833E0,2.016450909E0,4.310953295E-1,-2.337397560E0,3.116944787E0
6.206952833E0,1.798593594E0,-5.402599952E-1,-2.770789676E0,3.347251889E0
6.216990833E0,1.460640317E0,-1.093985543E0,-3.280555784E0,3.753973995E0
6.227027833E0,1.923858495E0,-1.148414716E0,-3.643872528E0,4.277603870E0
6.237065833E0,2.726359608E0,-1.106662965E0,-3.876566568E0,4.866775933E0
6.247103833E0,3.326008530E0,-1.275860701E0,-4.088021182E0,5.422367606E0
6.257141833E0,3.343016326E0,-1.758223540E0,-4.299576952E0,5.723064751E0
6.267179833E0,2.561357614E0,-2.594873269E0,-4.729943134E0,5.972125431E0
6.277216833E0,1.046790181E0,-3.435493842E0,-5.251777895E0,6.362354806E0
6.287254833E0,1.897421479E-2,-3.681188289E0,-5.285069017E0,6.440765619E0
6.297292833E0,4.106382608E-2,-3.388339264E0,-4.818160661E0,5.890433037E0
6.307330833E0,8.142160088E-1,-3.080985051E0,-4.124368059E0,5.212084850E0
6.317368833E0,1.821810549E0,-2.970019808E0,-3.367383428E0,4.845542538E0
6.327405833E0,2.223929417E0,-2.930954268E0,-2.794449849E0,4.620097935E0
6.337443833E0,2.034115933E0,-2.893022503E0,-2.548885503E0,4.359360519E0
6.347481833E0,1.572164261E0,-2.914840803E0,-2.389589368E0,4.083887207E0
6.357519833E0,8.305180460E-1,-2.922367924E0,-2.325824458E0,3.826153933E0
6.367557833E0,-1.887089449E-1,-2.988142668E0,-2.369025149E0,3.817969071E0
6.377595833E0,-1.991218420E0,-3.649120404E0,-1.418903184E0,4.392529654E0
6.387632833E0,-2.985485401E0,-3.986455338E0,-1.936287922E-1,4.984219232E0
6.397670833E0,-3.196992640E0,-3.434064490E0,6.313902399E-1,4.734154042E0
6.407708833E0,-3.533351381E0,-2.939679776E0,1.698199241E0,4.900017329E0
6.417746833E0,-3.513817588E0,-2.214325365E0,2.415522793E0,4.804674935E0
6.427784833E0,-3.757243023E0,-1.768330745E0,2.979266303E0,5.110762806E0
6.437821833E0,-3.473256623E0,-1.443038736E0,3.355533460E0,5.040384625E0
6.447859833E0,-1.846731382E0,-4.434705229E-1,3.416572545E0,3.908970562E0
6.457897833E0,-5.111203229E-1,2.415816616E-1,2.438897038E0,2.503562351E0
6.467935833E0,-4.415858191E-1,6.161285685E-1,1.012803825E0,1.265062858E0
6.477973833E0,-1.027385611E0,7.898781431E-1,-4.741144645E-1,1.379932317E0
6.488011833E0,-1.602691990E0,7.286246122E-1,-1.527765768E0,2.331004865E0
6.498048833E0,-2.183539190E0,5.285866870E-1,-2.238411800E0,3.171393174E0
6.508086833E0,-2.628802030E0,2.816809163E-1,-2.797855268E0,3.849407533E0
6.518124833E0,-2.933633170E0,-8.095440835E-2,-3.050732726E0,4.233169895E0
6.528162833E0,-3.002400227E0,-2.464208172E-1,-2.885649456E0,4.171582808E0
6.538200833E0,-2.819332091E0,-3.065628655E-1,-2.399034230E0,3.714563159E0
6.548237833E0,-2.529885853E0,-2.898307655E-1,-1.909917564E0,3.183097454E0
6.558275833E0,-2.371026651E0,-2.843251369E-1,-1.543495363E0,2.843410997E0
6.568313833E0,-2.136587802E0,-2.024307155E-1,-1.306253359E0,2.512425813E0
6.578351833E0,-1.922139122E0,-1.283140046E-1,-1.343790729E0,2.348799014E0
6.588389833E0,-1.719728396E0,1.827340772E-2,-1.447677625E0,2.248014720E0
6.598427833E0,-1.588783218E0,3.736356915E-1,-1.693240802E0,2.351786588E0
6.608464833E0,-1.237707327E0,8.831725153E-1,-2.008453088E0,2.519086526E0
6.618502833E0,-9.926446715E-1,1.214442791E0,-2.259192805E0,2.750303050E0
6.628540833E0,-9.548658112E-1,1.400220599E0,-2.109184826E0,2.705743350E0
6.638578833E0,-9.731009379E-1,1.415398948E0,-1.601376951E0,2.348337232E0
6.648616833E0,-9.890962887E-1,1.123631658E0,-1.066595285E0,1.838065579E0
6.658653833E0,-8.048534471E-1,7.892460591E-1,-4.532118380E-1,1.214948305E0
6.668691833E0,-4.467696682E-1,4.926918726E-1,1.577087617E-1,6.835352743E-1
6.678729833E0,-1.120121866E-2,9.381108340E-2,7.933736086E-1,7.989791421E-1
6.688767833E0,4.934146616E-1,-2.305361981E-1,1.325972509E0,1.433460171E0
6.698805833E0,8.604069659E-1,-3.507556097E-1,1.698159479E0,1.935736362E0
6.708842833E0,1.225211242E0,-3.030692272E-1,2.067142176E0,2.421997176E0
6.718880833E0,1.393295303E0,-1.735371745E-1,2.090429882E0,2.518190629E0
6.728918833E0,1.229006377E0,-2.860216700E-2,1.635240515E0,2.045797229E0
6.738956833E0,1.004091181E0,1.039424443E-1,7.567168289E-1,1.261595613E0
6.748994833E0,8.053320417E-1,3.660488561E-1,-1.915360737E-1,9.051174122E-1
6.759032833E0,4.954722968E-1,4.904173058E-1,-7.500118268E-1,1.023972495E0
6.769069833E0,2.516194305E-1,3.734451453E-1,-7.400557727E-1,8.662887284E-1
6.779107833E0,3.267400718E-1,6.777112976E-2,-3.107637244E-1,4.559891369E-1
6.789145833E0,4.950379948E-1,-3.932517113E-1,1.478088409E-1,6.492741934E-1
6.799183833E0,5.003658316E-1,-9.034318019E-1,5.029178488E-1,1.148686793E0
6.809221833E0,4.586896558E-1,-1.285519717E0,8.028314799E-1,1.583507350E0
6.819258833E0,2.976884732E-1,-1.701224590E0,1.086315604E0,2.040310056E0
6.829296833E0,1.108825046E-1,-2.071758260E0,1.239042538E0,2.416547875E0
6.839334833E0,-6.369605899E-2,-2.170147750E0,1.261763649E0,2.511104528E0
6.849372833E0,-6.624953806E-2,-2.046198473E0,1.170357635E0,2.358188751E0
6.859410833E0,2.696838185E-1,-1.934643977E0,9.927180541E-1,2.191133454E0
6.869448833E0,6.224223652E-1,-2.019214742E0,6.546893477E-1,2.212070505E0
6.879485833E0,5.072009343E-1,-2.211937508E0,1.918196636E-1,2.277436083E0
6.889523833E0,2.619757265E-1,-2.256350473E0,-3.008333981E-1,2.291342286E0
6.899561833E0,1.348438096E-1,-2.170682770E0,-9.350580758E-1,2.367357208E0
6.909599833E0,7.780597508E-3,-2.118808758E0,-1.810051214E0,2.786699928E0
6.919637833E0,-2.902142698E-1,-2.068104189E0,-2.588237849E0,3.325696081E0
6.929674833E0,-6.986767817E-1,-1.829425670E0,-3.257696679E0,3.800991341E0
6.939712833E0,-9.551143178E-1,-1.474029710E0,-3.789468783E0,4.176730851E0
6.949750833E0,-1.270786780E0,-1.320870082E0,-4.166515374E0,4.551861946E0
6.959788833E0,-1.879762596E0,-1.187133004E0,-4.400005220E0,4.929790880E0
6.969826833E0,-2.441443208E0,-1.047048116E0,-4.229177645E0,4.994286561E0
6.979863833E0,-1.958424311E0,-6.148346528E-1,-3.080848811E0,3.702036848E0
6.989901833E0,-2.948408791E-1,-5.774308913E-1,-8.178330964E-1,1.043651547E0
6.999939833E0,9.450345951E-1,-8.575990599E-1,1.676183889E0,2.106693847E0
7.009977833E0,1.080864245E0,-6.392662201E-1,4.073712460E0,4.262870163E0
7.020015833E0,9.774386948E-1,5.543572667E-1,5.212461217E0,5.332208766E0
7.030052833E0,1.225750648E0,2.531875075E0,4.000165597E0,4.890212762E0
7.040090833E0,1.747515242E0,3.594835146E0,1.682279027E0,4.336670609E0
7.050128833E0,1.942327511E0,3.338333291E0,-2.535791248E-1,3.870582345E0
7.060166833E0,1.810816029E0,3.041197087E0,-1.512097569E0,3.848944462E0
7.070204833E0,1.088996553E0,2.849891979E0,-2.042289755E0,3.671341066E0
7.080244583E0,1.792154056E-1,2.476191748E0,-1.903021358E0,3.128119886E0
7.090281583E0,-5.543628216E-1,2.072467820E0,-1.470924985E0,2.601165376E0
7.100319583E0,-8.698902726E-1,1.770454600E0,-1.023746304E0,2.222447991E0
7.110357583E0,-6.519861799E-1,1.369587037E0,-5.744532698E-1,1.621989886E0
7.120395583E0,-9.273859441E-2,9.404654346E-1,-1.495238292E-1,9.567826588E-1
7.130433583E0,3.673466456E-1,4.856996260E-1,1.628209823E-1,6.303636704E-1
7.140470583E0,6.578743261E-1,6.294907719E-2,4.433323824E-1,7.958045090E-1
7.150508583E0,7.546363896E-1,-4.168254190E-1,6.492251247E-1,1.079218594E0
7.160546583E0,7.426425809E-1,-7.067019390E-1,7.832579255E-1,1.290131238E0
7.170584583E0,6.503986609E-1,-9.585320885E-1,7.610502005E-1,1.386001295E0
7.180622583E0,4.251001793E-1,-1.243848511E0,4.993557250E-1,1.406138479E0
7.190659583E0,2.019821244E-1,-1.311687761E0,1.010884184E-1,1.330992272E0
7.200697583E0,1.817414027E-1,-1.357172521E0,-4.426687235E-1,1.439063163E0
7.210735583E0,3.249938008E-1,-1.515486177E0,-8.033144599E-1,1.745747245E0
7.220773583E0,5.958496937E-1,-1.596455934E0,-8.062836760E-1,1.885152984E0
7.230811583E0,1.036404941E0,-1.555027826E0,-3.684020680E-1,1.904722244E0
7.240849583E0,1.467559620E0,-1.620385079E0,2.822579634E-1,2.204324976E0
7.250886583E0,1.461918519E0,-1.910379786E0,1.149817536E0,2.666240246E0
7.260924583E0,1.071144419E0,-2.194327010E0,2.255052391E0,3.323805452E0
7.270962583E0,6.272232217E-1,-2.395517422E0,3.177535445E0,4.028479141E0
7.281000583E0,2.762949729E-1,-2.475826005E0,3.570699887E0,4.353843245E0
7.291038583E0,2.721454963E-1,-2.286329148E0,3.387344652E0,4.095786608E0
7.301075583E0,7.771560636E-1,-1.771332559E0,2.841874276E0,3.437708537E0
7.311113583E0,1.641530658E0,-1.276032317E0,1.960150409E0,2.857458836E0
7.321151583E0,2.183478086E0,-8.808641077E-1,9.265872145E-1,2.530229633E0
7.331189583E0,2.388384403E0,-5.546021920E-1,-2.054173636E-1,2.460520259E0
7.341227583E0,2.214772677E0,-2.950014583E-1,-1.300918359E0,2.585465615E0
7.351264583E0,1.754652354E0,-1.993755819E-1,-2.123742054E0,2.762034724E0
7.361302583E0,1.120038251E0,-2.983990560E-1,-2.474380281E0,2.732413851E0
7.371340583E0,5.474204224E-1,-5.619275837E-1,-2.556421979E0,2.674083967E0
7.381378583E0,4.172906381E-1,-8.164489143E-1,-2.597916745E0,2.754975811E0
7.391416583E0,4.544339061E-1,-1.048822161E0,-2.468395071E0,2.720204464E0
7.401453583E0,3.752672839E-1,-1.309886380E0,-2.395683190E0,2.756070719E0
7.411491583E0,1.809754175E-1,-1.613882537E0,-2.654169883E0,3.111589098E0
7.421529583E0,-3.454418063E-1,-1.946982333E0,-2.949665358E0,3.551140095E0
7.431567583E0,-1.335161408E0,-2.179119864E0,-3.089092800E0,4.009203624E0
7.441605583E0,-2.316038851E0,-2.326415758E0,-3.331444101E0,4.677046722E0
7.451643583E0,-3.098085818E0,-2.433241903E0,-3.597426925E0,5.334817932E0
7.461680583E0,-3.704294731E0,-2.315191150E0,-3.626740186E0,5.677601069E0
7.471718583E0,-4.020420352E0,-1.909378304E0,-2.955121980E0,5.342494851E0
7.481756583E0,-3.898908779E0,-1.509182440E0,-2.033529457E0,4.649125010E0
7.491794583E0,-3.702389123E0,-1.415071650E0,-1.348686603E0,4.186773047E0
7.501832583E0,-3.419735888E0,-1.806539376E0,-1.638146582E0,4.200202648E0
7.511869583E0,-3.407763714E0,-2.229355048E0,-2.759181783E0,4.918939070E0
7.521907583E0,-3.471962049E0,-2.110733023E0,-2.936516140E0,5.013266540E0
7.531945583E0,-3.491100571E0,-1.771318818E0,-2.852441949E0,4.843736019E0
7.541983583E0,-3.170662628E0,-1.668009335E0,-2.176250051E0,4.191827874E0
7.552021583E0,-2.969464615E0,-1.803097266E0,-3.390893912E-1,3.490538850E0
7.562058583E0,-2.449399806E0,-1.433679975E0,1.728788365E0,3.323207320E0
7.572096583E0,-2.027719079E0,-8.370919244E-1,2.668783537E0,3.454674097E0
7.582134583E0,-1.645067346E0,-7.664343166E-1,2.702415552E0,3.255260043E0
7.592172583E0,-1.306567354E0,-8.782618774E-1,2.757704192E0,3.175436125E0
7.602210583E0,-1.129729427E0,-7.635380445E-1,2.894254219E0,3.199372815E0
7.612247583E0,-6.400835878E-1,-5.200934601E-1,2.668500239E0,2.793044528E0
7.622285583E0,-2.564746660E-1,-5.161191076E-3,2.318120752E0,2.332271363E0
7.632323583E0,4.801908910E-2,6.020288850E-1,1.867973147E0,1.963178109E0
7.642361583E0,9.643298221E-1,1.196067696E0,1.352860930E0,2.047130342E0
7.652399583E0,1.035172933E0,1.649623643E0,6.012738633E-1,2.038227520E0
7.662436583E0,7.138076216E-1,2.294564513E0,-3.909787524E-1,2.434627694E0
7.672474583E0,1.156305606E0,2.915239584E0,-8.241428268E-1,3.242664935E0
7.682512583E0,2.260221330E0,2.699658297E0,-3.707301369E-1,3.540366678E0
7.692550583E0,2.378539739E0,2.547403818E0,4.461887473E-1,3.513659332E0
7.702588583E0,2.599490815E0,2.294893272E0,1.021255390E0,3.614809843E0
7.712626583E0,3.194268422E0,2.144377171E0,1.369330782E0,4.083720239E0
7.722663583E0,3.606669618E0,1.977961320E0,1.575716152E0,4.404915222E0
7.732701583E0,3.721822929E0,1.739647229E0,1.571950253E0,4.398791425E0
7.742739583E0,3.632240077E0,1.428369388E0,1.157593456E0,4.071047739E0
7.752777583E0,3.323755013E0,1.011794595E0,7.565577847E-1,3.555763683E0
7.762815583E0,3.382366918E0,5.406348749E-1,5.901828647E-1,3.475774424E0
7.772852583E0,2.888031027E0,1.369265878E-1,5.297077444E-1,2.939398306E0
7.782890583E0,2.220486576E0,-3.792900221E-1,6.765181732E-1,2.352041325E0
7.792928583E0,1.240749925E0,-1.107804561E0,1.181725792E0,2.040384074E0
7.802966583E0,8.327715629E-1,-1.831898165E0,1.955788971E0,2.806148582E0
7.813004583E0,1.205264928E0,-2.425519924E0,2.680795764E0,3.810836703E0
7.823041583E0,1.731528955E0,-2.530214174E0,3.386935055E0,4.568534267E0
7.833079583E0,1.557125807E0,-2.415333197E0,3.927187083E0,4.866340886E0
7.843117583E0,1.206342570E0,-2.921332090E0,4.227517036E0,5.278384589E0
7.853155583E0,1.588465714E0,-3.773608795E0,4.064205472E0,5.768978487E0
7.863193583E0,1.709105467E0,-4.439473341E0,3.227064285E0,5.748383159E0
7.873230583E0,1.948141982E0,-4.124030382E0,1.486948695E0,4.797280500E0
7.883268583E0,2.130934129E0,-2.854259264E0,-6.773584181E-1,3.625808963E0
7.893306583E0,1.715773047E0,-1.534756699E0,-2.044736523E0,3.079010023E0
7.903344583E0,2.192711132E0,8.538155459E-2,-2.877520365E0,3.618756080E0
7.913382583E0,3.160204298E0,1.894414110E0,-4.896349922E0,6.127800468E0
7.923419583E0,2.439484683E0,3.788124215E0,-8.205210614E0,9.360900160E0
7.933457583E0,1.419245539E0,4.453168105E0,-9.402672433E0,1.050024823E1
7.943495583E0,1.078657506E0,4.044498894E0,-6.612365921E0,7.825909301E0
7.953533583E0,1.848620617E-1,3.119933354E0,-3.063070936E0,4.376135473E0
7.963571583E0,-1.449257542E0,2.055265019E0,-1.312195884E0,2.836603561E0
7.973608583E0,-3.247735362E0,1.444474082E0,-5.038826394E-1,3.590012266E0
7.983646583E0,-4.349355469E0,1.273325348E0,-3.363727748E-1,4.544380825E0
7.993684583E0,-4.653827004E0,1.250511560E0,-1.721879295E-1,4.821984408E0
8.003722583E0,-4.798553778E0,1.384870050E0,-1.008036590E-1,4.995412375E0
8.013760583E0,-4.633973953E0,1.444965540E0,-6.179767272E-1,4.893213182E0
8.023798583E0,-4.349846635E0,1.546642919E0,-6.037931362E-1,4.655946329E0
8.033835583E0,-3.720020233E0,1.503528913E0,-1.016027687E0,4.139017031E0
8.043873583E0,-3.142608272E0,1.190543393E0,-1.824433610E0,3.823864317E0
8.053911583E0,-2.312476727E0,7.708418016E-1,-2.354281980E0,3.388862543E0
8.063949583E0,-1.336250744E0,4.865643561E-1,-2.543669786E0,2.914200904E0
8.073987583E0,-4.856036586E-1,2.796937401E-1,-2.779509336E0,2.835438529E0
8.084023708E0,-1.236510694E-2,1.390315124E-1,-2.668181566E0,2.671829996E0
8.094061708E0,1.436479622E-1,2.612559342E-1,-1.577252801E0,1.605184039E0
8.104099708E0,5.540815705E-1,6.052953590E-1,-4.103306973E-1,9.174748713E-1
8.114137708E0,6.279529542E-1,8.994371304E-1,2.673978496E-1,1.129076470E0
8.124175708E0,1.556236446E-2,1.035247996E0,7.263338193E-1,1.264729781E0
8.134212708E0,-8.317956626E-2,1.005154278E0,5.604608828E-1,1.153850234E0
8.144250708E0,6.548483920E-1,1.101358371E0,1.961357859E-1,1.296258432E0
8.154288708E0,1.419295240E0,1.187337803E0,-2.579589817E-1,1.868344956E0
8.164326708E0,2.074716074E0,1.106204397E0,-3.771597353E-1,2.381256900E0
8.174364708E0,2.902311097E0,9.543259670E-1,4.216956380E-1,3.084148986E0
8.184401708E0,3.276273867E0,8.090485319E-1,9.416021334E-1,3.503590239E0
8.194439708E0,3.164006158E0,7.299400165E-1,1.004799571E0,3.399024797E0
8.204477708E0,3.347097682E0,8.835460062E-1,1.153120482E0,3.648753662E0
8.214515708E0,3.823927594E0,1.222774854E0,1.178710967E0,4.184131945E0
8.224553708E0,4.020310425E0,1.335725811E0,1.029643075E0,4.359727539E0
8.234590708E0,4.597440550E0,1.113928496E0,8.591856287E-1,4.807857761E0
8.244628708E0,5.299520411E0,8.812306550E-1,1.337080318E0,5.536178089E0
8.254666708E0,5.932296149E0,5.055422619E-1,1.920991898E0,6.256030726E0
8.264704708E0,6.300611093E0,2.270461047E-1,2.462840216E0,6.768665453E0
8.274742708E0,5.337622038E0,-1.405994067E-1,2.487018453E0,5.890266377E0
8.284779708E0,4.160479878E0,-1.700043599E-1,1.887364999E0,4.571721879E0
8.294817708E0,2.421339603E0,-4.284607934E-1,5.425631404E-1,2.518102239E0
8.304855708E0,2.779375142E0,-5.412919557E-1,1.597756940E0,3.251269045E0
8.314893708E0,5.017220348E0,-2.456137553E-1,6.080378054E0,7.886940054E0
8.324931708E0,1.676138865E0,-4.559141287E-1,3.656715937E0,4.048317013E0
8.334968708E0,-8.309010386E-2,-1.279786522E0,5.792716679E-1,1.407236004E0
8.345006708E0,-9.645005608E-1,-1.494954702E0,6.263859004E-2,1.780189452E0
8.355044708E0,-1.252985809E0,-1.649795989E0,4.964952672E-1,2.130330442E0
8.365082708E0,-1.380848628E0,-1.957161020E0,9.532502255E-1,2.577965900E0
8.375120708E0,-2.028949918E0,-1.803981219E0,1.170063812E0,2.956355075E0
8.385157708E0,-2.665457348E0,-1.482810328E0,6.358078113E-1,3.115708734E0
8.395195708E0,-3.219144816E0,-8.951796996E-1,1.606121966E-1,3.345151166E0
8.405233708E0,-3.439696528E0,-1.735275266E-1,-1.744604498E-2,3.444115035E0
8.415271708E0,-3.772793693E0,3.199836141E-1,-9.846945047E-2,3.787619040E0
8.425309708E0,-4.236821126E0,5.993659168E-1,-4.650835861E-1,4.304206721E0
8.435346708E0,-4.703117278E0,9.773853390E-1,-1.233842610E0,4.959532419E0
8.445384708E0,-5.005216599E0,1.206815756E0,-1.406160055E0,5.337216837E0
8.455422708E0,-4.778781418E0,1.030465193E0,-1.268798580E0,5.050590084E0
8.465460708E0,-4.278266190E0,5.883361678E-1,-1.684035676E0,4.635264523E0
8.475498708E0,-4.625781419E0,2.116747615E-1,-2.127474478E0,5.095959929E0
8.485536708E0,-5.301997876E0,9.974925980E-2,-1.944211484E0,5.648104964E0
8.495573708E0,-5.536870004E0,-4.330009371E-2,-1.748106980E0,5.806434565E0
8.505611708E0,-4.596777475E0,1.177741791E-1,-1.704302126E0,4.903965707E0
8.515649708E0,-3.089477547E0,-1.210544671E-1,-1.599088497E0,3.480892086E0
8.525687708E0,-3.325846562E0,-8.645829011E-1,-1.004238677E0,3.580119309E0
8.535725708E0,-3.700768275E0,-6.403081208E-1,-1.393167103E0,4.005820128E0
8.545762708E0,-3.491073673E0,-8.809651914E-1,-2.385320608E0,4.318963934E0
8.555800708E0,-3.644691138E0,-1.439339641E0,-1.375770321E0,4.153097166E0
8.565838708E0,-2.745268918E0,-1.562391956E0,-6.321886772E-1,3.221371227E0
8.575876708E0,-1.964089093E0,-1.999115377E0,-6.174531090E-1,2.869731102E0
8.585914708E0,-1.888712052E0,-2.563580433E0,-5.729826951E-1,3.235349597E0
8.595951708E0,-1.914654393E0,-2.373330454E0,-1.179818430E0,3.269643775E0
8.605989708E0,-1.462106799E0,-1.559733958E0,-1.774457458E0,2.778349434E0
8.616027708E0,-9.444726777E-1,-7.157904124E-1,-1.937162080E0,2.270898826E0
8.626065708E0,-7.216680336E-1,-3.020060572E-1,-2.297245315E0,2.426797982E0
8.636103708E0,-4.419565326E-1,3.249180794E-2,-2.517609331E0,2.556313368E0
8.646140708E0,-1.631624597E-1,2.946432433E-1,-2.264981548E0,2.289886033E0
8.656178708E0,2.657664764E-1,1.598959127E-1,-1.945951030E0,1.970513622E0
8.666216708E0,1.156904946E0,-3.457809448E-2,-1.099029790E0,1.596086206E0
8.676254708E0,2.334594405E0,2.009407353E-1,-1.377276198E-1,2.347270140E0
8.686292708E0,3.040997697E0,2.938436365E-1,4.768849118E-1,3.092156253E0
8.696329708E0,3.219549444E0,3.085780352E-2,8.874845445E-1,3.339772394E0
8.706367708E0,3.111068391E0,-3.371750128E-1,6.481357884E-1,3.195702352E0
8.716405708E0,2.249435556E0,-5.966846761E-1,-7.756784722E-2,2.328520924E0
8.726443708E0,1.163702919E0,-1.129904551E0,-1.344166120E0,2.106578111E0
8.736481708E0,3.722170839E0,4.877045631E-2,8.901004426E-1,3.827429047E0
8.746518708E0,5.666023303E0,6.678394434E-1,-5.921473829E-1,5.735892966E0
8.756556708E0,5.243031630E0,1.025807155E0,-2.528096312E0,5.910408781E0
8.766594708E0,4.231536997E0,1.273883173E0,-3.967884289E0,5.939089949E0
8.776632708E0,3.786050500E0,8.592345992E-1,-3.062240632E0,4.944671897E0
8.786670708E0,4.349159587E0,5.093392611E-1,-1.229560694E0,4.548234283E0
8.796707708E0,5.141350304E0,6.011554572E-1,-1.712509131E-1,5.179208212E0
8.806745708E0,6.338572387E0,8.501798934E-1,2.084813046E-1,6.398731922E0
8.816783708E0,7.337633500E0,9.981714597E-1,1.831760756E0,7.628404755E0
8.826821708E0,6.653563063E0,-5.590154511E-1,4.358785858E0,7.973795449E0
8.836859708E0,5.553493053E0,-4.231928176E-1,3.624360369E0,6.645025609E0
8.846896708E0,3.851467395E0,2.145080298E-2,1.997261517E0,4.338584423E0
8.856934708E0,2.784265169E0,-8.254692677E-1,4.223268449E-1,2.934602530E0
8.866972708E0,2.327402329E0,-1.412290276E0,-8.794438921E-2,2.723802423E0
8.877010708E0,1.493049095E0,-2.365574707E0,7.505602956E-1,2.896287288E0
8.887048708E0,5.755408520E-1,-3.241874698E0,2.075308982E0,3.892031115E0
8.897085708E0,-2.919163942E-1,-3.481627496E0,2.708505135E0,4.420740353E0
8.907123708E0,-1.778875029E0,-3.492820821E0,2.823152661E0,4.830567732E0
8.917161708E0,-3.767400806E0,-3.471984853E0,2.944111673E0,5.908957708E0
8.927199708E0,-5.373974762E0,-2.699110706E0,1.160928415E0,6.124749638E0
8.937237708E0,-5.591360791E0,-1.125175615E0,-5.941765130E-2,5.703758947E0
8.947274708E0,-5.113584216E0,1.896123397E-1,-4.570400101E-1,5.137468437E0
8.957312708E0,-4.526651818E0,1.153392670E0,-2.862668876E-1,4.680047015E0
8.967350708E0,-4.026492101E0,2.263101961E0,5.410317546E-1,4.650482177E0
8.977388708E0,-3.764323416E0,3.130926120E0,1.611447610E0,5.154570065E0
8.987426708E0,-3.670369186E0,3.988233769E0,1.402454820E0,5.598615729E0
8.997463708E0,-3.795518897E0,4.583670942E0,6.746102268E-1,5.989248864E0
9.007501708E0,-3.883630589E0,4.756827462E0,2.362435922E-2,6.140891806E0
9.017539708E0,-3.147638047E0,4.668635370E0,-3.048055579E-1,5.638855196E0
9.027577708E0,-2.356450127E0,4.341868694E0,-4.324467672E-1,4.959001025E0
9.037615708E0,-1.884632449E0,3.538335548E0,-1.017794423E0,4.136129037E0
9.047653708E0,-1.730296361E0,2.403388212E0,-2.287418338E0,3.741989184E0
9.057690708E0,-1.730897455E0,9.354716201E-1,-3.647832847E0,4.144610673E0
9.067728708E0,-1.473681362E0,-3.054809113E-1,-3.227080073E0,3.560772548E0
9.077766708E0,-5.930041462E-1,-1.398919009E0,-1.759070071E0,2.324425913E0
9.087804333E0,-6.590934706E-1,-2.441998985E0,-6.019503862E-1,2.600020676E0
9.097842333E0,-1.237093077E0,-3.052346266E0,2.162749122E-1,3.300604769E0
9.107879333E0,-1.265703503E0,-2.898232080E0,4.764616831E-1,3.198244875E0
9.117917333E0,-7.657151091E-1,-2.288739078E0,6.061187200E-1,2.488378206E0
9.127955333E0,-9.972075462E-2,-1.457041941E0,8.167192018E-1,1.673303828E0
9.137993333E0,3.960406870E-1,-5.804721013E-1,5.007052624E-1,8.628452039E-1
9.148030333E0,6.111521494E-1,2.453637868E-2,3.520906021E-1,7.057455460E-1
9.158068333E0,5.530857897E-1,4.808232674E-1,1.518462702E-1,7.484331600E-1
9.168106333E0,2.471167821E-1,7.344729973E-1,3.347940266E-2,7.756533750E-1
9.178144333E0,1.125045222E-1,8.697892620E-1,4.769617662E-2,8.783311181E-1
9.188182333E0,5.949898607E-1,1.176946131E0,-6.020717159E-2,1.320166669E0
9.198220333E0,1.278211867E0,1.408124135E0,1.376041339E-1,1.906718136E0
9.208257333E0,1.746003737E0,1.229293183E0,3.784820100E-1,2.168626158E0
9.218295333E0,2.293300783E0,9.608264628E-1,2.968176766E-1,2.504099979E0
9.228333333E0,2.535432229E0,1.218301587E0,8.040184647E-1,2.925597552E0
9.238371333E0,2.708467712E0,1.426963571E0,1.330300618E0,3.337921826E0
9.248409333E0,3.201717775E0,1.419300503E0,1.169354764E0,3.692262341E0
9.258446333E0,3.204216290E0,1.250432914E0,4.227326417E-1,3.465441876E0
9.268484333E0,4.767947697E0,1.295396833E0,-9.563826520E-2,4.941712747E0
9.278522333E0,6.048624165E0,1.521709953E0,-1.809152277E-1,6.239726420E0
9.288560333E0,7.185201851E0,1.586016023E0,5.835392582E-1,7.381266187E0
9.298598333E0,7.541223609E0,1.676105682E0,1.122332187E0,7.806344427E0
9.308635333E0,6.839215668E0,8.005361554E-1,9.131251699E-1,6.946187924E0
9.318673333E0,5.571935756E0,4.758579580E-1,1.197722020E0,5.719042481E0
9.328711333E0,3.653877114E0,-3.308398470E-2,1.733271425E0,4.044272783E0
9.338749333E0,2.737572228E0,-5.396407020E-1,2.400656832E0,3.680851398E0
9.348786333E0,1.774853899E0,-8.536598638E-1,2.552205552E0,3.223754753E0
9.358824333E0,5.796812654E-1,-1.064450819E0,1.977258192E0,2.319188624E0
9.368862333E0,-5.271984118E-1,-1.415448065E0,5.665583593E-1,1.613201712E0
9.378900333E0,-1.327482845E0,-1.709834907E0,-6.107562929E-1,2.249170817E0
9.388938333E0,-1.577706837E0,-1.627852120E0,-1.249375738E0,2.588436038E0
9.398975333E0,-1.408851528E0,-1.147478065E0,-1.366743974E0,2.273666121E0
9.409013333E0,-1.871712441E0,-8.554118358E-1,-1.059976237E0,2.314862090E0
9.419051333E0,-2.412421430E0,-7.160441816E-1,-5.454721302E-1,2.574885681E0
9.429089333E0,-3.064024032E0,-2.662900946E-1,5.163442254E-2,3.076007119E0
9.439127333E0,-3.901845251E0,1.518445891E-1,5.925106412E-1,3.949496424E0
9.449164333E0,-3.942800903E0,4.823204470E-1,6.336199294E-1,4.022410495E0
9.459202333E0,-3.836737674E0,1.162236437E0,3.710882789E-1,4.026047196E0
9.469240333E0,-3.858110417E0,1.478561448E0,-2.718265307E-1,4.140658113E0
9.479278333E0,-3.751557190E0,8.142024140E-1,-1.057225195E0,3.981812657E0
9.489316333E0,-4.073309003E0,2.541910359E-1,-1.919728022E0,4.510190128E0
9.499353333E0,-3.963798839E0,8.978518040E-1,-1.908055226E0,4.489823365E0
9.509391333E0,-2.671323860E0,1.283037281E0,-8.865731098E-1,3.093245497E0
9.519429333E0,-2.878637475E0,2.312898311E-1,-6.300767360E-1,2.955849352E0
9.529467333E0,-3.003739239E0,-1.447749838E0,5.238652065E-2,3.334842329E0
9.539505333E0,-2.918262886E0,-3.291221982E0,1.661075853E0,4.701869139E0
9.549542333E0,-3.764604083E0,-4.943362412E0,1.653100251E0,6.429760204E0
9.559580333E0,-4.170069897E0,-5.383781127E0,2.713247665E-1,6.815291578E0
9.569618333E0,-3.362174728E0,-5.210652673E0,-2.269591274E-1,6.205371111E0
9.579656333E0,-2.738081521E0,-4.607323221E0,-1.644529037E-1,5.362048343E0
9.589694333E0,-2.299394751E0,-3.680983929E0,-1.029879448E0,4.460662572E0
9.599731333E0,-1.800394537E0,-2.901053361E0,-1.673101822E0,3.802209989E0
9.609769333E0,-9.713008726E-1,-2.138731099E0,-1.957774100E0,3.057854726E0
9.619807333E0,-3.440238565E-1,-1.620750823E0,-2.060834785E0,2.644281689E0
9.629845333E0,-1.036553460E-1,-1.219561955E0,-1.922991353E0,2.279467380E0
9.639883333E0,2.385547042E-2,-1.089004154E0,-1.386618075E0,1.763294876E0
9.649920333E0,-2.500503302E-2,-1.034907177E0,-1.176873772E0,1.567383167E0
9.659958333E0,-9.791630387E-2,-9.392172003E-1,-7.784187698E-1,1.223786065E0
9.669996333E0,2.122048116E-1,-8.766622254E-1,-3.551013700E-1,9.693629468E-1
9.680034333E0,1.746037066E-1,-6.263613421E-1,-4.916982114E-1,8.152190603E-1
9.690072333E0,2.399872720E-2,-4.492252064E-1,-1.358402921E0,1.430956925E0
9.700109333E0,3.132107842E-1,-2.463370559E-1,-1.836252587E0,1.878990820E0
9.710147333E0,1.572181803E-1,-1.216042516E-1,-1.709759771E0,1.721273837E0
9.720185333E0,-3.191538942E-1,5.300910294E-2,-1.691403022E0,1.722066594E0
9.730223333E0,-2.232449394E-1,2.581107169E-2,-1.466527294E0,1.483646460E0
9.740261333E0,4.532235324E-2,-4.623481125E-2,-4.282383800E-1,4.331049336E-1
9.750298333E0,6.334487522E-1,1.144121763E-1,2.807680929E-1,7.022664663E-1
9.760336333E0,1.350420302E0,7.717576218E-1,-5.320851127E-2,1.556302016E0
9.770374333E0,2.216391186E0,1.782905953E0,-1.038753183E0,3.028225834E0
9.780412333E0,3.047778713E0,2.883377228E0,-2.415754927E0,4.841352207E0
9.790450333E0,4.208127669E0,3.690043020E0,-4.154145005E0,6.970055716E0
9.800487333E0,4.299096311E0,3.767923839E0,-5.350514563E0,7.829909658E0
9.810525333E0,3.410170428E0,3.569437180E0,-6.421304641E0,8.099586250E0
9.820563333E0,2.653151298E0,2.728132483E0,-3.135003383E0,4.930533934E0
9.830601333E0,2.173111265E0,1.660568900E0,-1.778024844E0,3.262096563E0
9.840638333E0,2.316749872E0,-1.236770895E-1,-7.388833328E-1,2.434866438E0
9.850676333E0,3.558958678E0,-1.388062338E0,-1.835030957E-1,3.824470853E0
9.860714333E0,3.103166463E0,-1.740140441E0,2.123936766E0,4.143529684E0
9.870752333E0,9.693052179E-1,-1.712383124E0,4.528280268E0,4.937320199E0
9.880790333E0,6.639367193E-1,-2.379794551E0,4.421051688E0,5.064576202E0
9.890827333E0,7.392172819E-1,-3.210558765E0,4.301186106E0,5.417963796E0
9.900865333E0,1.290966983E0,-3.197004919E0,3.979950603E0,5.265685426E0
9.910903333E0,2.137376007E0,-3.245873901E0,3.678885655E0,5.351473932E0
9.920941333E0,1.886791241E0,-3.970206511E0,3.668918492E0,5.725686319E0
9.930979333E0,1.905640910E0,-4.201764144E0,3.766285157E0,5.955769731E0
9.941016333E0,1.380242856E0,-3.746731191E0,3.260088190E0,5.154729863E0
9.951054333E0,8.458342427E-1,-2.880998581E0,1.878621511E0,3.541864929E0
9.961092333E0,7.758366394E-1,-1.936040000E0,1.108811086E0,2.362125186E0
9.971130333E0,1.047985936E0,-1.407543798E0,1.147440058E0,2.096681367E0
9.981168333E0,1.379881498E0,-1.474879749E0,1.875514301E0,2.756246926E0
9.991205333E0,1.571991184E0,-1.542324020E0,2.926530265E0,3.662580928E0
1.000124333E1,1.195051596E0,-1.365131751E0,3.273767166E0,3.742897871E0
1.001128133E1,2.772047997E-1,-1.391877938E0,2.845646900E0,3.179917133E0
1.002131933E1,-3.546055627E-1,-1.403428528E0,2.063428609E0,2.520534539E0
1.003135733E1,-2.022931963E-1,-1.286318885E0,1.103929757E0,1.707102727E0
1.004139433E1,4.013160449E-1,-9.604792844E-1,8.947643280E-1,1.372653717E0
1.005143233E1,7.583259827E-1,-5.217444214E-1,8.046645820E-1,1.222604035E0
1.006147033E1,3.400617832E-1,-1.745335400E-1,3.129646164E-1,4.940150039E-1
1.007150833E1,-5.290011084E-1,-8.850257903E-2,-9.915661526E-1,1.127332388E0
1.008154675E1,-1.128042505E0,-2.333669083E-1,-1.398877932E0,1.812125679E0
1.009158375E1,-1.268675058E0,-6.280443169E-1,-6.524568808E-1,1.558741816E0
1.010162175E1,-1.780326893E0,-1.312960846E0,4.402368665E-3,2.212114240E0
1.011165975E1,-2.954050770E0,-1.913810640E0,-2.031271555E-2,3.519872117E0
1.012169775E1,-3.584090595E0,-1.687907264E0,-3.382550666E-1,3.976072537E0
1.013173475E1,-3.202279108E0,-8.237717479E-1,-1.829202745E-1,3.311593454E0
1.014177275E1,-2.196809446E0,-1.249645733E-1,1.879833055E-1,2.208376238E0
1.015181075E1,-1.533706539E0,7.881103836E-2,1.108272411E0,1.893867647E0
1.016184875E1,-1.536382810E0,9.975946319E-1,1.228888848E0,2.205863774E0
1.017188675E1,-1.275121028E0,2.098309005E0,-1.985393570E-1,2.463382267E0
1.018192375E1,-4.939067048E-1,2.051406003E0,5.979531565E-1,2.193116139E0
1.019196175E1,-4.504162842E-1,3.244679607E0,-7.800134517E-2,3.276721653E0
1.020199975E1,1.682811123E-1,2.338967830E0,1.630846918E0,2.856352693E0
1.021203775E1,6.371517938E-1,1.284287708E0,4.023528732E0,4.271316048E0
1.022207575E1,2.585434109E-1,2.530824038E0,2.009035324E0,3.241625818E0
1.023211275E1,2.106208009E-1,4.341433369E0,-1.274039440E0,4.529412910E0
1.024215075E1,8.014959759E-1,5.733218921E0,-2.168276787E0,6.181716527E0
1.025218875E1,1.199734046E0,6.130482261E0,-2.627243455E0,6.776767865E0
1.026222675E1,9.297043651E-1,5.041569908E0,-4.047750823E0,6.531926520E0
1.027226475E1,-1.125062764E-2,3.677369180E0,-4.498101618E0,5.809999039E0
1.028230175E1,6.716544592E-1,2.785208032E0,-3.330796815E0,4.393485054E0
1.029233975E1,1.367383075E0,2.500455939E0,-1.223926901E0,3.101614650E0
1.030237775E1,1.175795546E0,2.192697684E0,-4.771048037E-1,2.533386526E0
1.031241575E1,2.064675236E-1,1.808840986E0,-7.680271713E-1,1.975955538E0
1.032245375E1,-2.543737614E-1,1.520632311E0,-8.076384028E-1,1.740490858E0
1.033249075E1,6.352824390E-2,1.445237143E0,-8.023683073E-1,1.654249418E0
1.034252875E1,6.149341285E-2,1.079295730E0,-1.261069584E0,1.661010900E0
1.035256675E1,2.936471701E-2,5.759095189E-1,-1.662436500E0,1.759610519E0
1.036260475E1,7.835011697E-1,5.308421773E-1,-1.009878463E0,1.384023847E0
1.037264175E1,1.879089873E0,9.667963969E-1,3.665619127E-1,2.144770771E0
1.038267975E1,2.162681002E0,1.148726226E0,1.393842310E0,2.817722031E0
1.039271775E1,2.561355860E0,1.077337059E0,2.996108623E0,4.086302223E0
1.040275575E1,2.477462933E0,1.893079922E-1,3.493007348E0,4.286579106E0
1.041279375E1,1.802169167E0,-8.040853422E-1,2.384758837E0,3.095390388E0
1.042283075E1,7.962206179E-1,-1.305542337E0,8.322518186E-1,1.740991429E0
1.043286875E1,1.986533046E-2,-1.668527691E0,-2.309299350E-1,1.684549768E0
1.044290675E1,-9.003893495E-1,-2.220393898E0,-1.827909780E0,3.013652967E0
1.045294475E1,-1.629600291E0,-2.141456779E0,-2.036339629E0,3.374627880E0
1.046298275E1,-1.692749051E0,-1.706179228E0,-3.052012682E-1,2.422724648E0
1.047301975E1,-1.293815746E0,-2.126580585E0,1.274033446E0,2.796330701E0
1.048305775E1,-1.082827156E0,-1.890710191E0,1.002226796E0,2.398282349E0
1.049309575E1,-1.292922292E0,-1.943021283E0,7.915866264E-1,2.464465286E0
1.050313375E1,-1.472258150E0,-2.936420245E0,1.117461237E0,3.469701361E0
1.051317175E1,6.465202028E-1,-2.519634222E0,4.004640325E-1,2.631903575E0
1.052320875E1,1.935158240E0,-1.609456195E0,-2.412610149E-1,2.528516073E0
1.053324675E1,2.190403236E0,-1.272109712E0,-5.215247123E-1,2.586139494E0
1.054328475E1,1.204716459E0,-1.353807009E0,-3.354124428E-1,1.842996655E0
1.055332275E1,1.952145571E0,-1.704398020E0,6.768315840E-1,2.678422284E0
1.056336075E1,1.064828841E0,-2.384480948E0,1.063396931E0,2.819649426E0
1.057339775E1,4.310199004E-1,-2.393413155E0,1.203836453E0,2.713563504E0
1.058343575E1,-4.077339488E-1,-1.872265734E0,7.052747798E-1,2.041822340E0
1.059347375E1,-1.800903829E0,-1.382950702E0,-7.858065806E-2,2.271999596E0
1.060351175E1,-2.941655257E0,-9.097785160E-1,-4.429008579E-1,3.110818826E0
1.061354975E1,-3.865570294E0,-7.619949643E-1,-3.562930691E-1,3.956035235E0
1.062358675E1,-4.322941841E0,-5.251716938E-1,5.198888075E-1,4.385648851E0
1.063362475E1,-4.407280326E0,-4.726187468E-2,8.343824708E-1,4.485816276E0
1.064366275E1,-4.503624313E0,4.201980199E-1,7.550964193E-1,4.585778989E0
1.065370075E1,-3.815948483E0,9.709425113E-1,5.760406427E-1,3.979449084E0
1.066373875E1,-2.575811931E0,1.711405177E0,4.598004075E-1,3.126520622E0
1.067377575E1,-2.018285766E0,2.243088403E0,2.230186522E-1,3.025666924E0
1.068381375E1,-2.162230766E0,2.243931718E0,-3.681675947E-1,3.137836647E0
1.069385175E1,-2.031384113E0,1.960935544E0,-9.505174562E-1,2.979139650E0
1.070388975E1,-1.391108152E0,1.562252938E0,-1.538294849E0,2.596568347E0
1.071392675E1,-9.258481264E-1,9.543325451E-1,-2.348461661E0,2.698743696E0
1.072396475E1,-1.112412897E0,2.019455063E-1,-2.646586629E0,2.877961992E0
1.073400275E1,-1.364991564E0,-4.058834513E-1,-2.494083059E0,2.872001680E0
1.074404075E1,-6.014855325E-1,-7.336715633E-1,-1.894965649E0,2.119187018E0
1.075407875E1,4.674907386E-1,-7.938750073E-1,-1.224717956E0,1.532553161E0
1.076411575E1,5.858214265E-1,-7.363615018E-1,-1.211933750E0,1.534339734E0
1.077415375E1,3.311213905E-1,-5.956238085E-1,-1.291392660E0,1.460172626E0
1.078419175E1,5.005853945E-1,-5.315161786E-1,-1.161419654E0,1.371856698E0
1.079422975E1,9.000320846E-1,-8.216141984E-1,-1.019552023E0,1.588897093E0
1.080426775E1,1.316263792E0,-9.262866676E-1,-8.566626283E-1,1.823301461E0
1.081430475E1,1.291754018E0,-4.698610537E-1,-5.202162516E-1,1.469701603E0
1.082434275E1,1.520578955E0,1.290671625E-1,-1.934713559E-1,1.538261960E0
1.083438075E1,2.383720372E0,8.637050879E-1,-3.854964030E-1,2.564511019E0
1.084441875E1,3.673067676E0,1.753995711E0,-8.046224821E-1,4.149137795E0
1.085445675E1,4.127617941E0,2.149461032E0,-1.317244370E0,4.836584056E0
1.086449375E1,3.679411320E0,2.409613889E0,-2.457773019E0,5.038348437E0
1.087453175E1,3.559551001E0,2.462925586E0,-2.714270489E0,5.109175085E0
1.088456975E1,3.788780565E0,2.164122048E0,-2.190103859E0,4.882093539E0
1.089460775E1,3.841949882E0,1.189792830E0,-1.109210962E0,4.172113952E0
1.090464575E1,4.316738530E0,-4.002466623E-1,-3.436829638E-1,4.348855816E0
1.091468275E1,5.790711669E0,-1.763483403E0,1.962696140E0,6.363520369E0
1.092472075E1,5.746155885E0,-2.372483485E0,4.623788688E0,7.747671081E0
1.093475875E1,4.697447818E0,-2.339441016E0,4.365249663E0,6.826009441E0
1.094479675E1,3.388101867E0,-2.342025631E0,3.245636212E0,5.243898620E0
1.095483375E1,2.468940032E0,-2.271808465E0,1.913017173E0,3.862177272E0
1.096487175E1,1.977784442E0,-2.046395232E0,1.069387915E0,3.040222896E0
1.097490975E1,1.632093544E0,-1.909208150E0,8.766930695E-1,2.660337542E0
1.098494775E1,1.545957626E0,-1.858921365E0,1.215745916E0,2.706217240E0
1.099498575E1,1.629322549E0,-1.714210525E0,1.787597759E0,2.964576772E0
1.100502275E1,8.384784454E-1,-1.742245731E0,2.073913836E0,2.835416176E0
1.101506075E1,-1.133102685E0,-2.321636682E0,1.723961488E0,3.105794873E0
1.102509875E1,-2.538679773E0,-2.672468745E0,1.106777497E0,3.848628406E0
1.103513675E1,-2.073091718E0,-2.303205966E0,1.608454274E0,3.491359642E0
1.104517475E1,-1.728925189E0,-2.188429801E0,1.727232567E0,3.280509052E0
1.105521175E1,-1.258182229E0,-1.862534506E0,1.586192901E0,2.751011673E0
1.106524975E1,-3.411739236E-1,-1.448815054E0,1.468882699E0,2.091191309E0
1.107528775E1,7.387956977E-3,-7.800036576E-1,1.002549416E0,1.270262028E0
1.108532533E1,-2.791858363E-1,-1.077352408E-1,6.116419999E-1,6.809240408E-1
1.109536333E1,-1.464222322E0,-4.089283888E-1,7.333892159E-1,1.687906744E0
1.110540033E1,-2.295071905E0,-1.534655396E0,1.136671826E0,2.985723542E0
1.111543833E1,-8.607931745E-1,-2.187817451E0,2.084248205E0,3.141910354E0
1.112547633E1,-2.443896407E-1,-2.401594871E0,2.269498522E0,3.313307677E0
1.113551433E1,-1.182867168E0,-1.991852404E0,1.159620831E0,2.590631431E0
1.114555133E1,-1.519048154E0,-1.509225124E0,2.258918278E-1,2.153205724E0
1.115558933E1,-1.630935795E0,-1.026815654E0,-1.936597093E-1,1.936957934E0
1.116562733E1,-1.995082844E0,-7.729728924E-1,-5.598040943E-1,2.211611013E0
1.117566533E1,-2.121220735E0,-6.445670865E-1,-4.429476357E-1,2.260806657E0
1.118570333E1,-1.978095514E0,-4.270213551E-1,-3.509872326E-1,2.053874664E0
1.119574033E1,-2.032842994E0,-3.818204047E-1,-8.494039679E-1,2.236006386E0
1.120577833E1,-1.895186089E0,-5.312408844E-1,-8.226775146E-1,2.133247637E0
1.121581633E1,-1.917918309E0,-5.241135670E-1,-1.591658513E-1,1.994602577E0
1.122585433E1,-2.052072147E0,4.979057617E-2,7.023445208E-2,2.053877328E0
1.123589233E1,-7.274702257E-1,1.541211587E0,1.462764026E0,2.245935146E0
1.124592933E1,-1.710648547E0,2.339037850E0,2.625493566E-1,2.909699071E0
1.125596733E1,-2.489594151E0,1.684809994E0,-8.430211473E-1,3.122074376E0
1.126600533E1,-1.366270934E0,2.056729162E0,1.135295757E-1,2.471784796E0
1.127604333E1,-1.168706966E0,1.775114977E0,5.270376134E-1,2.189675273E0
1.128608133E1,-5.077347851E-1,1.560294121E0,4.929717350E-1,1.713281497E0
1.129611833E1,-3.324604028E-1,1.448290705E0,9.009261239E-1,1.737740995E0
1.130615633E1,-6.409144771E-1,2.152510647E0,2.807926694E-1,2.263386396E0
1.131619433E1,-3.756836057E-1,2.465281429E0,-6.395988536E-1,2.574458659E0
1.132623233E1,-6.130869931E-1,2.317261796E0,-6.292504513E-1,2.478211860E0
1.133626933E1,-9.040321648E-1,1.773636509E0,-2.988383281E-1,2.013048675E0
1.134630733E1,-1.309043650E0,3.996351532E-1,2.398657669E0,2.761677415E0
1.135634533E1,-3.154041917E0,1.467187591E0,4.368665314E-1,3.505919595E0
1.136638333E1,-7.293565375E-1,1.962864540E0,-5.485273004E-1,2.164643241E0
1.137642133E1,7.929251271E-1,2.627579962E0,-2.202529192E-2,2.744702503E0
1.138645833E1,9.501351213E-1,2.702393040E0,-9.205996656E-1,3.008851714E0
1.139649633E1,1.098472551E0,2.748976053E0,-1.847890885E0,3.489729503E0
1.140653433E1,1.050060529E0,2.708625587E0,-2.210075608E0,3.650166281E0
1.141657233E1,9.610314077E-1,2.280897377E0,-1.779586051E0,3.048442343E0
1.142661033E1,1.155886361E0,1.729545725E0,-1.266025100E0,2.435204560E0
1.143664733E1,1.421455786E0,1.213759324E0,-9.129316270E-1,2.080190473E0
1.144668533E1,2.153924212E0,1.167025745E0,-3.225849672E-1,2.470910695E0
1.145672333E1,2.020467947E0,1.031338913E0,2.043426454E-1,2.277653748E0
1.146676133E1,1.467402622E0,6.591307466E-1,8.133150259E-1,1.802555166E0
1.147679833E1,1.510017715E0,9.228653155E-2,1.500271575E0,2.130606745E0
1.148683633E1,2.162764617E0,-2.289517488E-1,1.914005352E0,2.897134132E0
1.149687433E1,2.472999169E0,-1.422175140E-1,1.998173537E0,3.182553722E0
1.150691233E1,2.542783933E0,-2.021614512E-1,1.728883528E0,3.081502497E0
1.151695033E1,1.984820981E0,-8.309448928E-1,9.368923473E-1,2.346859819E0
1.152698733E1,8.985948390E-1,-1.869576161E0,2.518641365E-1,2.089550969E0
1.153702533E1,-2.398744208E-1,-2.835866555E0,4.865351200E-2,2.846409320E0
1.154706333E1,-9.545369053E-1,-3.259090070E0,6.199241424E-1,3.452117427E0
1.155710133E1,-9.806534940E-1,-2.949262777E0,1.037639873E0,3.276664266E0
1.156713933E1,-1.187092366E0,-1.867482858E0,4.873910062E-1,2.265884045E0
1.157717633E1,-1.444176897E0,-1.042128780E-1,1.608615804E-1,1.456840307E0
1.158721433E1,-6.843861866E-1,1.333307841E0,-4.358879998E-2,1.499331262E0
1.159725233E1,-1.586324463E0,1.745582737E0,-4.682802589E-1,2.404739237E0
1.160729033E1,-1.955495440E0,2.207250965E0,-6.440333819E-1,3.018393320E0
1.161732833E1,-2.099024704E0,1.901864194E0,-8.591407514E-1,2.959918065E0
1.162736533E1,-2.383328608E0,1.185246620E0,-7.368216777E-1,2.761878163E0
1.163740333E1,-2.261977834E0,3.191437346E-1,-1.731511120E-1,2.290933816E0
1.164744133E1,-2.510058821E0,-5.235513938E-1,4.793947926E-1,2.608509290E0
1.165747933E1,-1.785871223E0,-6.486007152E-1,9.384114540E-1,2.119111835E0
1.166751633E1,-1.645845610E0,-7.959456526E-1,1.582416623E0,2.417928788E0
1.167755433E1,-7.570296550E-1,-8.063399555E-1,8.112741284E-1,1.371657295E0
1.168759233E1,2.978448862E-1,-5.650912198E-1,-1.732607181E0,1.846609679E0
1.169763033E1,-7.563455307E-1,-5.280144639E-1,-2.735733279E0,2.887056357E0
1.170766833E1,-2.409016011E0,-7.761021030E-1,-2.803233536E0,3.776746070E0
1.171770533E1,-1.637774699E0,-1.497983852E0,-1.409140234E0,2.629056444E0
1.172774333E1,-8.667666900E-1,-1.679779488E0,-6.939194139E-1,2.013570902E0
1.173778133E1,-1.273632912E0,-1.343052080E0,-7.599977016E-1,2.000881353E0
1.174781933E1,-1.648259341E0,-1.188985256E0,-5.466023239E-1,2.104570953E0
1.175785733E1,-1.506014711E0,-1.106988582E0,-2.493147504E-1,1.885646275E0
1.176789433E1,-9.999691862E-1,-7.994995902E-1,-1.316489641E-1,1.287039012E0
1.177793233E1,-9.658547759E-2,-2.441228615E-1,7.584294053E-1,8.025832597E-1
1.178797033E1,5.442471385E-2,5.645016742E-1,1.336257176E0,1.451622345E0
1.179800833E1,-8.215273672E-1,7.524261421E-1,7.936542019E-1,1.367822834E0
1.180804533E1,-1.198726571E0,6.698176295E-1,2.993299328E-2,1.373498101E0
1.181808333E1,-1.146482869E0,6.560187853E-1,-4.070773065E-1,1.382206768E0
1.182812133E1,-1.012023806E0,8.066219375E-1,-6.721713531E-1,1.458302253E0
1.183815933E1,-6.870004767E-1,1.082540203E0,-9.335406502E-1,1.585988995E0
1.184819733E1,-2.088619584E-1,1.564844863E0,-1.124828802E0,1.938453661E0
1.185823433E1,9.416940808E-3,1.759972735E0,-1.070460148E0,2.059970300E0
1.186827233E1,1.086360043E-1,1.452778882E0,-1.092146448E0,1.820755921E0
1.187831033E1,1.265109426E-1,1.100273931E0,-1.095543680E0,1.557826594E0
1.188834833E1,2.588866425E-1,8.366044859E-1,-9.699595213E-1,1.306809409E0
1.189838533E1,3.129938525E-1,2.926418875E-1,-4.523593871E-1,6.230838155E-1
1.190842333E1,3.326399124E-1,-1.890602164E-1,-2.171901476E-1,4.399598129E-1
1.191846133E1,3.920341748E-1,-1.672556569E-1,-1.163350332E-1,4.418134096E-1
1.192849933E1,7.806857353E-1,-1.229908457E-1,-2.703728763E-1,8.352834595E-1
1.193853733E1,1.593644593E0,1.699526851E-1,-9.709301591E-1,1.873844278E0
1.194857433E1,2.336229871E0,3.217883572E-1,-1.631200089E0,2.867460809E0
1.195861233E1,2.860660211E0,3.290418282E-1,-1.850532657E0,3.422881313E0
1.196865033E1,3.487399868E0,4.933425947E-1,-1.982788489E0,4.041880125E0
1.197868833E1,4.106021250E0,1.306289173E-1,-9.018651867E-1,4.205928582E0
1.198872633E1,3.991152699E0,4.186531124E-1,-2.096039701E0,4.527466479E0
1.199876333E1,4.519554468E0,-1.174726017E0,-1.707229096E0,4.972020212E0
1.200880133E1,3.644385914E0,-2.130451734E0,-4.640350342E-3,4.221420947E0
1.201883933E1,2.578165435E0,-2.216744943E0,2.194692754E0,4.046921229E0
1.202887733E1,2.759026832E0,-2.590193450E0,2.287257686E0,4.421863735E0
1.203891433E1,2.360865360E0,-2.914066924E0,1.733902924E0,4.131814449E0
1.204895233E1,9.211352706E-1,-2.570920735E0,1.483597655E0,3.107923039E0
1.205899033E1,2.698215204E-1,-2.483763893E0,1.491401349E0,2.909667457E0
1.206902833E1,1.150965929E-2,-2.790067069E0,1.407951057E0,3.125209257E0
1.207906633E1,-7.845437282E-1,-3.100737238E0,1.503143728E0,3.534051690E0
1.208910396E1,-1.445294884E0,-2.883175792E0,1.320314158E0,3.484940376E0
1.209914196E1,-1.774925820E0,-1.961563973E0,1.172489530E0,2.893583692E0
1.210917996E1,-1.656423224E0,-1.382127560E0,1.030361259E-1,2.159775667E0
1.211921796E1,-2.153881527E0,-1.549451922E0,-1.918599729E-1,2.660228776E0
1.212925596E1,-2.478522449E0,-1.834345079E0,3.168815931E-1,3.099727301E0
1.213929296E1,-2.178996488E0,-2.098700915E0,1.334701817E0,3.306659971E0
1.214933096E1,-1.722670423E0,-1.884921740E0,2.136393675E0,3.329369503E0
1.215936896E1,-1.224633245E0,-1.227920550E0,2.777399368E0,3.274364474E0
1.216940696E1,-7.363281727E-1,-3.777237723E-1,3.154964608E0,3.261695281E0
1.217944396E1,-7.768552244E-1,4.067130981E-1,2.676313874E0,2.816305298E0
1.218948196E1,-1.054429568E0,8.938904616E-1,1.873834981E0,2.328544482E0
1.219951996E1,-6.468844843E-1,1.098863437E0,1.342531239E0,1.851580545E0
1.220955796E1,-1.368821490E-1,1.322704500E0,1.113486446E0,1.734397873E0
1.221959596E1,-3.516556424E-1,1.734470689E0,6.621083681E-1,1.889560201E0
1.222963296E1,-8.655019373E-1,2.041887759E0,-2.131893365E-1,2.227969685E0
1.223967096E1,-1.927175036E0,2.342409793E0,-1.049330796E0,3.209670135E0
1.224970896E1,-8.623999894E-1,2.091473756E0,-2.463710282E0,3.344826538E0
1.225974696E1,1.276745385E-1,1.969353195E0,-1.334486639E0,2.382332342E0
1.226978396E1,-6.605003107E-1,2.097757612E0,-7.639745392E-2,2.200609968E0
1.227982196E1,-2.818831569E-1,1.785019576E0,-8.001329899E-1,1.976351639E0
1.228985996E1,-4.251732695E-1,1.670811760E0,-6.452671444E-1,1.840856847E0
1.229989796E1,-9.067359173E-1,1.328669976E0,-1.049680459E-1,1.612002549E0
1.230993596E1,-1.010162637E0,1.109298524E0,3.081260089E-1,1.531637492E0
1.231997296E1,-9.640696210E-1,1.126361650E0,8.072443736E-1,1.688124485E0
1.233001096E1,-1.107558539E0,1.299718803E0,1.316566093E0,2.156223820E0
1.234004896E1,-1.155949511E0,1.374737410E0,1.550662880E0,2.372904884E0
1.235008696E1,-8.394736415E-1,1.521484104E0,1.802041698E0,2.503394526E0
1.236012396E1,-6.119105333E-1,1.693024162E0,2.255036019E0,2.885472710E0
1.237016196E1,-5.490979886E-1,1.759778461E0,2.418744024E0,3.041159563E0
1.238019996E1,-5.636195487E-1,1.697796952E0,2.412251276E0,3.003187923E0
1.239023796E1,-6.306672317E-1,1.303497274E0,2.553196070E0,2.935243852E0
1.240027596E1,-4.571616322E-1,7.207389841E-1,2.629849559E0,2.764881579E0
1.241031296E1,-1.714198977E-1,4.007741542E-1,2.651538051E0,2.687128345E0
1.242035096E1,1.797527647E-1,1.692112581E-1,2.506972661E0,2.519098138E0
1.243038896E1,6.177922475E-1,6.865267061E-2,2.189740162E0,2.276256231E0
1.244042696E1,8.695072800E-1,2.255715466E-1,1.821705299E0,2.031141460E0
1.245046496E1,4.374629474E-1,-6.243447105E-1,7.955101812E-1,1.101824213E0
1.246050196E1,8.316027045E-1,-2.048783965E-1,1.069017202E0,1.369794143E0
1.247053996E1,3.920259887E-1,-1.640421733E0,-3.589851272E-1,1.724395013E0
1.248057796E1,1.438309801E-1,-2.666732041E0,-1.248337272E0,2.947964226E0
1.249061596E1,1.885159868E0,-1.024254354E0,-3.520030839E0,4.122322382E0
1.250065296E1,1.648097958E0,-1.986539478E0,-4.646762398E0,5.315540120E0
1.251069096E1,2.344853929E0,-1.475716778E0,-4.263680896E0,5.084786597E0
1.252072896E1,2.914689653E0,-1.542080044E0,-4.175986694E0,5.320929572E0
1.253076696E1,2.954737233E0,-1.534932408E0,-3.501471777E0,4.831852048E0
1.254080496E1,2.793821858E0,-2.109699089E0,-2.726447901E0,4.437317768E0
1.255084196E1,2.473837659E0,-2.629175083E0,-1.413652092E0,3.876963582E0
1.256087996E1,2.048733972E0,-3.161538633E0,-8.331335056E-1,3.858334984E0
1.257091796E1,1.793250409E0,-2.868885489E0,-1.432837976E0,3.674136041E0
1.258095596E1,2.871543633E0,-2.925452623E0,1.535993385E-1,4.102149271E0
1.259099296E1,3.620646218E0,-3.274057773E0,1.043332722E0,4.991700763E0
1.260103096E1,3.726210095E0,-3.006586248E0,1.133223138E0,4.920202966E0
1.261106896E1,3.655687997E0,-2.770931178E0,7.800162292E-1,4.653014038E0
1.262110696E1,3.242800312E0,-2.606416258E0,5.364469528E-1,4.194870070E0
1.263114496E1,2.442732226E0,-3.008119973E0,3.560592536E-1,3.891337134E0
1.264118196E1,2.459012629E0,-3.586122503E0,-2.648707560E-1,4.356279861E0
1.265121996E1,3.185946080E0,-3.653478334E0,7.963953035E-1,4.912474106E0
1.266125796E1,4.203090293E0,-3.357445500E0,2.680932004E0,6.010474582E0
1.267129596E1,4.475555924E0,-3.270564646E0,3.574578345E0,6.595817180E0
1.268133396E1,4.759039464E0,-3.148025717E0,4.218390702E0,7.096008924E0
1.269137096E1,4.982501335E0,-2.807497034E0,4.237553197E0,7.117880039E0
1.270140896E1,4.865097431E0,-2.349079712E0,3.886477014E0,6.655227425E0
1.271144696E1,4.393152868E0,-2.550701063E0,3.351394801E0,6.085861907E0
1.272148496E1,4.143186153E0,-2.291100476E0,2.878350377E0,5.540761119E0
1.273152196E1,3.404226733E0,-1.755780135E0,2.425936684E0,4.533948867E0
1.274155996E1,2.829125007E0,-1.272820149E0,2.320854033E0,3.874323538E0
1.275159796E1,3.044324178E0,-1.976575238E-1,2.479767905E0,3.931440838E0
1.276163596E1,3.385826131E0,7.391330820E-1,2.416211595E0,4.224714756E0
1.277167396E1,3.852806992E0,1.698506512E0,2.069285911E0,4.691587180E0
1.278171096E1,3.918814455E0,3.129724225E0,1.503463717E0,5.235712330E0
1.279174896E1,3.482686427E0,4.732431417E0,4.142746443E-1,5.890384991E0
1.280178696E1,2.332741422E0,6.088204553E0,-1.235888843E0,6.635912782E0
1.281182496E1,1.274704122E0,7.199272590E0,-2.651533958E0,7.777212146E0
1.282186196E1,2.825327826E-1,7.869780995E0,-3.751969127E0,8.722989741E0
1.283189996E1,-5.619571853E-1,8.340094185E0,-4.839091647E0,9.658663202E0
1.284193796E1,-1.334770229E0,8.033327617E0,-5.922978026E0,1.006963916E1
1.285197596E1,-3.106191228E0,6.136323629E0,-6.620656103E0,9.546516582E0
1.286201396E1,-9.537841932E0,1.442706468E0,-9.309391801E0,1.340584225E1
1.287205096E1,-1.372471322E1,-2.330277113E0,-1.047730413E1,1.742331330E1
1.288208896E1,-1.545966981E1,-3.332788961E0,-8.755211413E0,1.807657600E1
1.289212696E1,-1.595841509E1,-3.302122069E0,-6.853200454E0,1.767883986E1
1.290216496E1,-1.464883057E1,-1.900437327E0,-5.681247699E0,1.582644857E1
1.291220196E1,-1.208876519E1,3.400119357E-1,-6.302811985E0,1.363742244E1
1.292223996E1,-8.166313182E0,2.560820839E0,-7.007695001E0,1.106138615E1
1.293227796E1,-4.536166407E0,3.225374440E0,-6.418086918E0,8.495392024E0
1.294231596E1,-1.639398471E0,1.180559126E0,-5.113638010E0,5.498239799E0
1.295235396E1,1.331422698E-1,-1.401935588E0,-2.980968427E0,3.296865636E0
1.296239096E1,1.036683269E0,-2.582615166E0,-2.289304796E0,3.603544053E0
1.297242896E1,2.836029400E0,-3.301616285E0,-2.017339686E0,4.797227559E0
1.298246696E1,3.571893303E0,-2.433526370E0,-2.564344956E0,5.025568368E0
1.299250496E1,4.061042714E0,-1.746113372E0,-3.418451840E0,5.588093844E0
1.300254196E1,5.250122548E0,-1.634015816E0,-3.226231642E0,6.375136474E0
1.301257996E1,5.804892921E0,-2.148436161E0,-3.363086894E0,7.044353286E0
1.302261796E1,6.283267082E0,-2.368130233E0,-4.402034204E0,8.029034261E0
1.303265596E1,6.703490099E0,-2.518260711E0,-4.714169101E0,8.573319475E0
1.304269396E1,6.030984870E0,-2.907654575E0,-4.152140579E0,7.878293281E0
1.305273096E1,5.490902118E0,-3.522302775E0,-2.889063646E0,7.134655679E0
1.306276896E1,4.143941029E0,-3.355036155E0,-2.022399867E0,5.702509629E0
1.307280696E1,4.834742196E0,-1.931803984E0,-1.575265040E0,5.439490663E0
1.308284446E1,6.498982562E0,1.097517993E-1,7.611145198E-2,6.500354817E0
1.309288146E1,5.626301413E0,6.915648133E-2,1.136787016E0,5.740412436E0
1.310291946E1,4.109385154E0,1.410291259E0,-2.252458566E-1,4.350483131E0
1.311295746E1,3.456723036E0,3.320408067E0,4.216701295E-1,4.811636891E0
1.312299546E1,2.681703837E0,4.245541956E0,2.185713769E0,5.476632784E0
1.313303346E1,9.483142984E-1,3.027758431E0,4.195300047E0,5.259958518E0
1.314307046E1,-1.486697849E0,6.284908980E-1,7.327188034E0,7.502863173E0
1.315310846E1,-3.954451481E0,-1.330411861E0,1.007184066E1,1.090181895E1
1.316314646E1,-5.400705893E0,-1.711600474E0,1.126549360E1,1.260985909E1
1.317318446E1,-5.753491802E0,-6.985026808E-1,1.096404975E1,1.240165154E1
1.318322246E1,-6.640425539E0,1.131433159E0,8.762444419E0,1.105241261E1
1.319325946E1,-8.161584538E0,2.352855698E0,5.343052347E0,1.003471975E1
1.320329746E1,-9.433439897E0,3.000243773E0,2.714599687E0,1.026451667E1
1.321333546E1,-1.059765971E1,2.860605832E0,2.794863832E-1,1.098050863E1
1.322337346E1,-1.166598577E1,2.081602779E0,-1.131911023E0,1.190418064E1
1.323341046E1,-1.173969928E1,9.266452481E-1,-1.403151078E0,1.185951279E1
1.324344846E1,-1.093480315E1,-1.112520486E-2,-1.445346632E0,1.102991707E1
1.325348646E1,-9.606946666E0,-8.632468124E-1,-9.572362724E-1,9.693034642E0
1.326352446E1,-6.066763397E0,-1.516253624E0,5.617735827E-1,6.278553395E0
1.327356246E1,-1.686712385E0,-2.479251012E0,-4.950510049E-1,3.039203802E0
1.328359946E1,2.106319690E0,-3.134290900E0,-3.486937938E0,5.139951193E0
1.329363746E1,6.182109666E0,-2.889315953E0,-5.948801669E0,9.052892792E0
1.330367546E1,7.166952106E0,-3.616422774E0,-7.033851351E0,1.067327415E1
1.331371346E1,7.303769351E0,-4.009666153E0,-6.100587786E0,1.032664712E1
1.332375046E1,5.095357860E0,-4.779928057E0,-5.565807874E0,8.932446543E0
1.333378846E1,9.474021327E-1,-5.409021803E0,-5.356418497E0,7.671134648E0
1.334382646E1,-4.510477250E0,-4.912066360E0,-4.246472540E0,7.906031241E0
1.335386446E1,-3.470137952E1,-6.840076379E0,-7.977771467E0,3.625765054E1
1.336390246E1,-2.273772369E1,-9.619269673E0,-7.800558733E0,2.589175823E1
1.337393946E1,-2.362218406E0,1.221339508E0,1.357679620E-1,2.662738990E0
1.338397746E1,-3.813176318E0,2.198302824E0,-2.231937763E-1,4.407115202E0
1.339401546E1,7.072900811E0,2.203085847E0,2.831458631E-1,7.413479933E0
1.340405346E1,1.334750817E1,1.432132217E0,2.148814038E0,1.359501301E1
1.341409046E1,1.620987810E1,-3.609385650E0,1.129662534E1,2.008485890E1
1.342412846E1,1.992540007E1,-2.917253072E0,1.212592775E1,2.350680875E1
1.343416646E1,1.889907105E1,2.795197123E-1,-2.322227544E-1,1.890256452E1
1.344420446E1,1.257715271E1,1.091978048E0,-5.816114897E0,1.389979780E1
1.345424246E1,6.696019696E0,-5.480063134E-1,-3.766996763E0,7.702418796E0
1.346427946E1,1.622625732E0,-2.557561601E0,-3.099641762E0,4.333799103E0
1.347431746E1,-1.013634129E0,-1.705987147E0,-2.960660755E0,3.564177100E0
1.348435546E1,-1.819548261E0,4.031871539E-1,-1.947037151E0,2.695230866E0
1.349439346E1,-1.631795921E0,2.177297872E0,-9.413461715E-1,2.879152056E0
1.350443046E1,-2.140279734E-1,2.973907329E0,-5.020881289E-1,3.023578222E0
1.351446846E1,1.223505317E0,3.029407931E0,-8.309524941E-1,3.371165929E0
1.352450646E1,2.675918602E0,2.654980307E0,-1.389624714E0,4.017526309E0
1.353454446E1,3.747117400E0,1.816814688E0,-1.676941103E0,4.489302382E0
1.354458246E1,4.707213838E0,3.633582598E-1,-8.124527809E-1,4.790612785E0
1.355461946E1,6.353276380E0,1.042186083E0,1.314180429E0,6.570946872E0
1.356465746E1,4.526969322E0,5.321083188E-2,2.280906440E0,5.069400046E0
1.357469546E1,5.261401243E0,-1.175369284E0,3.396490282E0,6.371811534E0
1.358473346E1,5.818016412E0,-8.497080231E-1,2.393895112E0,6.348389756E0
1.359477046E1,4.264941555E0,-1.408729321E0,4.161986706E-1,4.510816567E0
1.360480846E1,3.168519039E0,-1.552501245E0,-1.392085514E0,3.793108895E0
1.361484646E1,3.181359524E0,-2.128436199E0,-1.211574073E0,4.014872452E0
1.362488446E1,5.817034079E0,-3.768146034E0,1.953579600E0,7.200922390E0
1.363492246E1,6.626795679E0,-3.158374704E0,3.003111833E0,7.931483621E0
1.364495946E1,4.397609616E0,-8.645444557E-1,1.848422982E0,4.847997006E0
1.365499746E1,2.266453877E0,-1.323346524E0,1.661221449E0,3.106077253E0
1.366503546E1,-1.614068332E0,-2.786471616E0,3.417946056E0,4.695955269E0
1.367507346E1,-2.378726850E0,-5.922826583E0,3.711717771E0,7.383431788E0
1.368511046E1,-5.269021919E0,-6.477250800E0,1.165050117E0,8.430581930E0
1.369514846E1,-6.820459555E0,-6.409704934E0,-2.020295454E0,9.575206505E0
1.370518646E1,-7.179918306E0,-5.194671063E0,-5.584448213E0,1.047482201E1
1.371522446E1,-7.286617713E0,-3.625272243E0,-7.846855817E0,1.130533249E1
1.372526246E1,-6.399353024E0,-2.559536498E0,-7.278452076E0,1.002391195E1
1.373529946E1,-4.146990352E0,-2.318233603E0,-5.834197412E0,7.523934838E0
1.374533746E1,-1.466215053E0,-2.083408253E0,-5.024121231E0,5.633131516E0
1.375537546E1,2.773790467E-1,-2.076213254E0,-5.594130033E0,5.973432132E0
1.376541346E1,1.392437224E0,-2.353856302E0,-6.200793275E0,6.777120196E0
1.377545046E1,2.411476520E0,-2.510619862E0,-6.266451659E0,7.168462003E0
1.378548846E1,3.215175726E0,-2.620296086E0,-5.700250565E0,7.049550555E0
1.379552646E1,3.546290100E0,-2.798732058E0,-4.641033297E0,6.476748001E0
1.380556446E1,3.736763735E0,-3.461960387E0,-3.770608588E0,6.337670081E0
1.381560246E1,3.542611617E0,-4.574576767E0,-3.027038639E0,6.529916737E0
1.382563946E1,2.483609526E0,-5.481280525E0,-1.966424471E0,6.330843362E0
1.383567746E1,2.181455242E0,-5.803863226E0,-4.615265787E-1,6.217441765E0
1.384571546E1,9.937664598E-1,-6.164960952E0,1.074555684E0,6.336322691E0
1.385575346E1,1.014389005E0,-5.783820140E0,1.043870666E0,5.964161839E0
1.386579046E1,8.499103367E-1,-4.587441811E0,3.759467304E-2,4.665660008E0
1.387582846E1,6.747698557E-1,-3.786661534E0,-3.958564997E-4,3.846312532E0
1.388586646E1,5.558778352E-1,-1.953873861E0,-1.287998936E0,2.405320040E0
1.389590446E1,2.011208296E-2,-6.217585601E-1,-2.860086014E0,2.926957501E0
1.390594246E1,-3.235919309E-1,4.687090060E-1,-3.736625741E0,3.779784623E0
1.391597946E1,-5.454809010E-1,1.383612607E0,-3.987568941E0,4.255894655E0
1.392601746E1,-5.286116838E-1,1.833029017E0,-4.015346723E0,4.445496035E0
1.393605546E1,-8.058486432E-1,1.693245187E0,-3.988143137E0,4.407012251E0
1.394609346E1,-1.424406876E0,1.124241157E0,-4.257206858E0,4.627814102E0
1.395613046E1,-1.830862039E0,5.258951405E-1,-4.784501165E0,5.149764354E0
1.396616846E1,-1.912337726E0,2.761687461E-2,-5.045988649E0,5.396276467E0
1.397620646E1,-2.220483068E0,-1.637441846E-1,-5.232103769E0,5.686146943E0
1.398624446E1,-2.218347080E0,-2.465586653E-1,-5.598950477E0,6.027445677E0
1.399628246E1,-2.050196945E0,-3.486855492E-1,-5.352278084E0,5.742104998E0
1.400631946E1,-2.121709562E0,-5.366214922E-1,-4.727381469E0,5.209390525E0
1.401635746E1,-2.339913032E0,-9.148709292E-1,-3.992182394E0,4.716958986E0
1.402639546E1,-2.491117643E0,-1.520940752E0,-2.986406922E0,4.175829761E0
1.403643346E1,-2.984349872E0,-2.253295595E0,-2.045398720E0,4.262316403E0
1.404647046E1,-3.158276471E0,-2.791182425E0,-1.180463963E0,4.377088617E0
1.405650846E1,-2.923774764E0,-2.846796755E0,-2.935927910E-1,4.091320980E0
1.406654646E1,-2.716139552E0,-2.453003738E0,6.421412230E-2,3.660432332E0
1.407658446E1,-2.055120593E0,-1.823917008E0,2.027978110E-1,2.755235173E0
1.408662533E1,-1.897430835E0,-1.401430096E0,7.947459501E-1,2.489150701E0
1.409666233E1,-2.303247189E0,-2.000323850E0,2.112799575E0,3.710817317E0
1.410670033E1,-2.475635386E0,-2.839618713E0,2.971157384E0,4.797914255E0
1.411673833E1,-2.621623404E0,-3.296935589E0,3.588286557E0,5.533398049E0
1.412677633E1,-2.648854472E0,-3.613374621E0,4.337920654E0,6.236221754E0
1.413681333E1,-2.225352044E0,-4.014671955E0,4.967537141E0,6.763594301E0
1.414685133E1,-1.662985846E0,-4.167269080E0,5.164454407E0,6.841289559E0
1.415688933E1,-1.380713849E0,-4.074152171E0,4.829367435E0,6.467447446E0
1.416692733E1,-1.124297948E0,-3.674325412E0,4.269614065E0,5.744068016E0
1.417696533E1,-5.590157434E-1,-3.125544927E0,3.727687687E0,4.896650404E0
1.418700233E1,-1.087712212E-1,-2.578778223E0,3.358216748E0,4.235510362E0
1.419704033E1,8.917573974E-2,-2.137444127E0,2.812561015E0,3.533711812E0
1.420707833E1,4.104556815E-1,-1.826149621E0,2.420368965E0,3.059653940E0
1.421711633E1,6.039815627E-1,-1.608997773E0,2.590100187E0,3.108421873E0
1.422715333E1,6.814875756E-1,-1.691826945E0,2.891025971E0,3.418294150E0
1.423719133E1,8.378391986E-1,-2.044418434E0,2.911358494E0,3.654809097E0
1.424722933E1,9.138559256E-1,-2.316011222E0,2.631872111E0,3.622953415E0
1.425726733E1,8.278772973E-1,-2.511207215E0,2.163839920E0,3.416686362E0
1.426730433E1,8.077263303E-1,-2.613969983E0,1.688075371E0,3.214787607E0
1.427734233E1,9.069986035E-1,-2.618435794E0,1.275647278E0,3.050594770E0
1.428738033E1,9.558420038E-1,-2.446053591E0,9.121030766E-1,2.780061893E0
1.429741833E1,1.107988163E0,-2.041340752E0,5.458510298E-1,2.385930255E0
1.430745633E1,1.600596494E0,-1.523198216E0,1.265986508E-1,2.213158186E0
1.431749333E1,1.875151043E0,-1.014529338E0,-2.116487414E-1,2.142488366E0
1.432753133E1,1.663627432E0,-6.281656466E-1,-4.708979112E-1,1.839563305E0
1.433756933E1,1.441981267E0,-3.671172886E-1,-8.562820476E-1,1.716771395E0
1.434760733E1,1.109700959E0,-2.132738288E-1,-1.350610337E0,1.760985584E0
1.435764433E1,7.584268472E-1,-5.166395098E-2,-1.620471618E0,1.789918633E0
1.436768233E1,5.615753621E-1,3.510346681E-2,-1.683573600E0,1.775111041E0
1.437772033E1,5.262163720E-1,4.700138122E-3,-1.579102567E0,1.664479102E0
1.438775833E1,6.235950243E-1,-2.125170529E-2,-1.372116981E0,1.507324583E0
1.439779633E1,6.404899693E-1,1.783400774E-4,-1.297326999E0,1.446818847E0
1.440783333E1,5.474593064E-1,6.623433530E-2,-1.376485435E0,1.482838775E0
1.441787133E1,5.891245186E-1,1.560475677E-1,-1.449901321E0,1.572778555E0
1.442790933E1,5.350474218E-1,2.593244527E-1,-1.527609063E0,1.639242009E0
1.443794733E1,4.832337821E-1,3.056652448E-1,-1.661052464E0,1.756713243E0
1.444798433E1,3.915707830E-1,3.288835149E-1,-1.663949175E0,1.740752395E0
1.445802233E1,3.265883365E-1,2.789785525E-1,-1.613686509E0,1.669872188E0
1.446806033E1,3.222160810E-1,1.260582219E-1,-1.430180417E0,1.471438039E0
1.447809833E1,3.142986587E-1,-1.096636525E-1,-1.084890638E0,1.134811641E0
1.448813633E1,2.695072326E-1,-3.622541593E-1,-8.278838754E-1,9.430026169E-1
1.449817333E1,2.340093711E-1,-5.267253721E-1,-7.006385225E-1,9.072454699E-1
1.450821133E1,3.090463972E-1,-5.514824831E-1,-5.833357751E-1,8.601879047E-1
1.451824933E1,4.744313836E-1,-6.093139310E-1,-3.157245022E-1,8.342844632E-1
1.452828733E1,3.987263131E-1,-7.326488122E-1,-1.269307727E-1,8.437229260E-1
1.453832433E1,1.996055236E-1,-7.264902323E-1,-2.383944905E-1,7.902293059E-1
1.454836233E1,8.260244608E-2,-6.361352554E-1,-4.697828472E-1,7.951019751E-1
1.455840033E1,1.467013782E-1,-4.821002993E-1,-6.641092122E-1,8.336564272E-1
1.456843833E1,3.548645943E-1,-2.759359539E-1,-8.025835580E-1,9.198966781E-1
1.457847633E1,5.214868516E-1,-9.956814229E-2,-9.408789790E-1,1.080331248E0
1.458851333E1,5.660990605E-1,-1.983697146E-2,-1.037189053E0,1.181787960E0
1.459855133E1,7.016141304E-1,-1.726215005E-2,-9.492773348E-1,1.180545564E0
1.460858933E1,9.333995131E-1,-1.120651039E-1,-4.159656590E-1,1.028017834E0
1.461862733E1,1.043597601E0,-3.071425438E-1,1.204555660E-1,1.094505385E0
1.462866433E1,9.129193479E-1,-5.651591206E-1,3.294385618E-1,1.123101212E0
1.463870233E1,7.234172282E-1,-7.137348238E-1,4.348925114E-1,1.105387435E0
1.464874033E1,5.769441837E-1,-7.088284251E-1,5.191122973E-1,1.051085108E0
1.465877833E1,5.435776323E-1,-6.404019687E-1,5.613309485E-1,1.010288948E0
1.466881533E1,6.173791417E-1,-5.396778318E-1,5.989957881E-1,1.015482703E0
1.467885333E1,8.591422132E-1,-3.774690530E-1,5.332561272E-1,1.079337911E0
1.468889133E1,1.308515646E0,-2.109470755E-1,6.785518348E-1,1.489007877E0
1.469892933E1,2.101876976E0,-1.141540217E-1,7.896775836E-1,2.248223443E0
1.470896733E1,2.687327981E0,-2.805844903E-2,7.370637524E-1,2.786715258E0
1.471900433E1,2.631564840E0,-1.495858097E-1,8.611966324E-1,2.772935098E0
1.472904233E1,2.234131638E0,-5.126619413E-1,1.045365799E0,2.519316593E0
1.473908033E1,1.740721070E0,-8.146098188E-1,1.191951987E0,2.261514656E0
1.474911833E1,1.494917280E0,-1.075604382E0,1.256435081E0,2.229424046E0
1.475915533E1,1.486128038E0,-1.409378655E0,1.266049073E0,2.407863159E0
1.476919333E1,1.545187255E0,-1.769349622E0,1.340049096E0,2.704428464E0
1.477923133E1,1.541427788E0,-2.011393945E0,1.352158095E0,2.872287719E0
1.478926933E1,1.389812117E0,-2.021364617E0,1.240017269E0,2.748660667E0
1.479930733E1,1.104448405E0,-1.932988630E0,1.007348957E0,2.443563636E0
1.480934433E1,8.577891675E-1,-1.746817377E0,6.679636967E-1,2.057510317E0
1.481938233E1,6.534833595E-1,-1.606666050E0,3.625215232E-1,1.771958846E0
1.482942033E1,4.148643360E-1,-1.509845222E0,1.029671288E-1,1.569186809E0
1.483945833E1,2.118826300E-1,-1.338707744E0,-1.676817727E-1,1.365704892E0
1.484949533E1,1.423054415E-1,-1.191793235E0,-4.226589668E-1,1.272502478E0
1.485953333E1,5.430893898E-2,-1.012406799E0,-7.074218774E-1,1.236269671E0
1.486957133E1,-2.254171801E-1,-7.559081590E-1,-1.082780963E0,1.339636019E0
1.487960933E1,-4.700497726E-1,-4.922510657E-1,-1.467017875E0,1.617219635E0
1.488964633E1,-5.724888977E-1,-2.456105393E-1,-1.772134359E0,1.878437718E0
1.489968433E1,-7.135868892E-1,-3.221611172E-2,-1.888313856E0,2.018903996E0
1.490972233E1,-8.297234094E-1,1.306314754E-1,-1.939966405E0,2.113995074E0
1.491976033E1,-9.902040437E-1,2.590658596E-1,-1.971602765E0,2.221449219E0
1.492979833E1,-1.018389670E0,2.755684564E-1,-1.928827459E0,2.198506507E0
1.493983533E1,-1.152663083E0,2.720724061E-1,-1.858127021E0,2.203472624E0
1.494987333E1,-1.217934382E0,2.315003309E-1,-1.696493608E0,2.101201353E0
1.495991133E1,-1.161326026E0,1.080354953E-1,-1.458862764E0,1.867787560E0
1.496994933E1,-1.285855347E0,5.363884807E-2,-1.335136850E0,1.854424845E0
1.497998633E1,-1.470477380E0,2.271730989E-2,-1.405374189E0,2.034182001E0
1.499002433E1,-1.546166371E0,3.469971657E-2,-1.536198038E0,2.179848373E0
1.500006233E1,-1.385184630E0,3.345776796E-2,-1.452398667E0,2.007316061E0
1.501010033E1,-1.191929183E0,3.217898190E-2,-1.176459205E0,1.675048335E0
1.502013733E1,-1.208665376E0,8.575935781E-2,-9.906265050E-1,1.565109431E0
1.503017533E1,-1.371102489E0,1.414947250E-1,-9.577528739E-1,1.678461605E0
1.504021333E1,-1.431562991E0,2.635340095E-1,-9.498497772E-1,1.738113164E0
1.505025133E1,-1.427984787E0,3.422831404E-1,-6.903591174E-1,1.622619491E0
1.506028933E1,-1.409535068E0,3.661432886E-1,-3.137077975E-1,1.489718966E0
1.507032633E1,-1.403323863E0,4.481390861E-1,-6.235061467E-2,1.474460614E0
1.508036433E1,-1.461602769E0,6.721441635E-1,-1.087874472E-2,1.608781768E0
1.509039971E1,-1.344601153E0,9.012927443E-1,-5.578243732E-2,1.619689029E0
1.510043771E1,-1.172819605E0,1.037699807E0,8.754217386E-2,1.568435637E0
1.511047471E1,-9.605229923E-1,1.122691425E0,3.765016311E-1,1.524727495E0
1.512051271E1,-8.205108288E-1,1.197905914E0,5.311803657E-1,1.546081880E0
1.513055071E1,-7.429977992E-1,1.351548522E0,6.208240288E-1,1.662573792E0
1.514058871E1,-6.552711457E-1,1.395059408E0,6.716819412E-1,1.681287500E0
1.515062671E1,-7.236294821E-1,1.301647799E0,8.975937957E-1,1.738850552E0
1.516066371E1,-8.687509426E-1,1.154925663E0,1.136323332E0,1.838426556E0
1.517070171E1,-1.051398956E0,8.855225113E-1,1.572803947E0,2.088851871E0
1.518073971E1,-1.260027318E0,5.581114715E-1,2.250672827E0,2.639069046E0
1.519077771E1,-1.572673846E0,1.568989223E-1,2.709782166E0,3.137011267E0
1.520081471E1,-1.945439399E0,-2.023317879E-1,2.958631479E0,3.546712962E0
1.521085271E1,-2.278150063E0,-4.439776227E-1,3.133798272E0,3.899714790E0
1.522089071E1,-2.371482734E0,-4.906126758E-1,3.026084958E0,3.875799444E0
1.523092871E1,-2.161892213E0,-4.601092136E-1,2.729925240E0,3.512544696E0
1.524096571E1,-1.971625277E0,-5.419889438E-1,2.633943195E0,3.334473722E0
1.525100371E1,-1.857795776E0,-6.075485104E-1,2.791651956E0,3.407908594E0
1.526104171E1,-1.645951445E0,-4.955094266E-1,3.043009139E0,3.494937821E0
1.527107971E1,-1.542204005E0,-4.402479762E-1,3.328763153E0,3.694979784E0
1.528111771E1,-1.490619577E0,-6.891923055E-1,3.326079866E0,3.709412356E0
1.529115471E1,-1.482016276E0,-9.510452405E-1,3.065835500E0,3.535563124E0
1.530119271E1,-1.537055240E0,-1.078993429E0,2.765693827E0,3.343026769E0
1.531123071E1,-1.510995369E0,-1.073600542E0,2.388312775E0,3.023204101E0
1.532126871E1,-1.399855587E0,-9.530651611E-1,1.960020601E0,2.590291416E0
1.533130571E1,-1.223388665E0,-7.901833677E-1,1.545258883E0,2.123415785E0
1.534134371E1,-1.056864349E0,-6.004780573E-1,1.159570692E0,1.679922718E0
1.535138171E1,-9.607492796E-1,-4.335517448E-1,8.835727572E-1,1.375393439E0
1.536141971E1,-8.679256082E-1,-4.183244258E-1,6.842546242E-1,1.181733717E0
1.537145771E1,-6.081560361E-1,-4.968069237E-1,6.547478199E-1,1.022431216E0
1.538149471E1,-4.320086646E-1,-5.480378884E-1,6.828811133E-1,9.763726893E-1
1.539153271E1,-3.719872883E-1,-5.713296872E-1,5.924743885E-1,9.032264695E-1
1.540157071E1,-4.114659342E-1,-5.881480336E-1,3.776295590E-1,8.110649840E-1
1.541160871E1,-4.651255399E-1,-6.484038833E-1,3.902957976E-2,7.989322073E-1
1.542164571E1,-4.663046309E-1,-6.710495648E-1,-2.807534748E-1,8.640428467E-1
1.543168371E1,-5.301989105E-1,-6.012636307E-1,-5.102104962E-1,9.502334391E-1
1.544172171E1,-5.745760614E-1,-5.282129037E-1,-7.032142210E-1,1.050550695E0
1.545175971E1,-6.697742870E-1,-4.995057061E-1,-9.114464343E-1,1.236461948E0
1.546179671E1,-7.123095649E-1,-4.557632706E-1,-1.032762710E0,1.334804814E0
1.547183471E1,-6.303435883E-1,-4.274685940E-1,-1.068858742E0,1.312448646E0
1.548187271E1,-5.199771005E-1,-3.713566661E-1,-1.174491616E0,1.337053670E0
1.549191071E1,-4.111405367E-1,-3.301902214E-1,-1.313053086E0,1.414980752E0
1.550194871E1,-3.758297861E-1,-3.306325632E-1,-1.255971397E0,1.352046623E0
1.551198571E1,-3.979041946E-1,-4.280500996E-1,-1.254287399E0,1.383759920E0
1.552202371E1,-4.002442503E-1,-4.549455374E-1,-1.335047972E0,1.466125503E0
1.553206171E1,-1.773238313E-1,-4.733420473E-1,-1.377381814E0,1.467200428E0
1.554209971E1,1.083834046E-1,-5.857918981E-1,-1.200714625E0,1.340378573E0
1.555213671E1,3.022244507E-1,-6.964089391E-1,-9.558554524E-1,1.220649284E0
1.556217471E1,3.373451668E-1,-7.506594059E-1,-8.252093589E-1,1.165444890E0
1.557221271E1,4.587538290E-1,-7.770850199E-1,-6.962466788E-1,1.139769995E0
1.558225071E1,7.011975163E-1,-8.868460286E-1,-4.813001078E-1,1.228748806E0
1.559228871E1,9.476050311E-1,-9.207250884E-1,-2.387178415E-1,1.342637774E0
1.560232571E1,1.074998611E0,-8.705080310E-1,-6.814052761E-2,1.384936597E0
1.561236371E1,1.110958110E0,-8.681285065E-1,-1.754164696E-2,1.410029339E0
1.562240171E1,1.181736901E0,-9.512393680E-1,-1.309109724E-1,1.522660869E0
1.563243971E1,1.319580333E0,-1.004786122E0,-2.188162583E-1,1.672951871E0
1.564247671E1,1.450268526E0,-1.086881030E0,-6.653663635E-2,1.813564528E0
1.565251471E1,1.373428511E0,-1.190508310E0,5.940829575E-2,1.818555816E0
1.566255271E1,1.185855680E0,-1.195556503E0,-8.092429519E-2,1.685870039E0
1.567259071E1,9.620283580E-1,-1.227147255E0,-3.034728312E-1,1.588547987E0
1.568262771E1,7.983539745E-1,-1.177176950E0,-5.639364678E-1,1.530078096E0
1.569266571E1,6.460515484E-1,-1.016110425E0,-7.595234925E-1,1.423635815E0
1.570270371E1,5.502247471E-1,-7.410717264E-1,-8.673473185E-1,1.266580415E0
1.571274171E1,6.058320603E-1,-4.298951885E-1,-8.188008106E-1,1.105566428E0
1.572277971E1,7.748323801E-1,-1.768344194E-1,-6.493765676E-1,1.026316499E0
1.573281671E1,7.908227608E-1,-6.200065881E-2,-5.993735182E-1,9.942300212E-1
1.574285471E1,6.846665606E-1,-4.853978366E-2,-7.499165171E-1,1.016611623E0
1.575289271E1,6.969021517E-1,-1.133611393E-1,-6.870449156E-1,9.851670279E-1
1.576293071E1,8.675662968E-1,-2.409237036E-1,-1.269798893E-1,9.093071002E-1
1.577296771E1,9.592456681E-1,-4.464150345E-1,7.396271718E-1,1.290924858E0
1.578300571E1,8.779904205E-1,-6.329371208E-1,1.628941895E0,1.955742384E0
1.579304371E1,7.813388693E-1,-9.292544219E-1,2.263500448E0,2.568547934E0
1.580308171E1,7.368912596E-1,-1.286455271E0,2.639531963E0,3.027392422E0
1.581311871E1,7.909090072E-1,-1.409097111E0,2.898389370E0,3.318396098E0
1.582315671E1,7.575018176E-1,-1.387936623E0,2.900193236E0,3.303225375E0
1.583319471E1,7.079808712E-1,-1.267441295E0,2.566810727E0,2.948925509E0
1.584323271E1,6.602886415E-1,-9.121963397E-1,1.925060098E0,2.230233090E0
1.585327071E1,7.458717057E-1,-4.105411971E-1,1.212098569E0,1.481233140E0
1.586330771E1,8.647578791E-1,1.031682730E-2,5.957330418E-1,1.050147839E0
1.587334571E1,1.111336717E0,3.657600036E-1,3.060841978E-2,1.170378808E0
1.588338371E1,1.384656335E0,6.074333203E-1,-3.580425560E-1,1.553847765E0
1.589342171E1,1.617755587E0,6.617934224E-1,-5.150888282E-1,1.822202012E0
1.590345871E1,1.589773736E0,6.053689608E-1,-5.835263944E-1,1.798431306E0
1.591349671E1,1.395442109E0,4.714446259E-1,-6.942293894E-1,1.628334474E0
1.592353471E1,1.063841831E0,3.022212347E-1,-8.812777251E-1,1.414124303E0
1.593357271E1,7.702046013E-1,4.271683395E-2,-1.078525944E0,1.325993238E0
1.594360971E1,4.378167039E-1,-1.627780053E-1,-1.237976006E0,1.323164668E0
1.595364771E1,1.558867693E-2,-2.591737407E-1,-1.397895600E0,1.421803834E0
1.596368571E1,-3.708543903E-1,-3.875935069E-1,-1.672994817E0,1.756893100E0
1.597372371E1,-6.390772820E-1,-4.799906239E-1,-1.888237842E0,2.050427497E0
1.598376171E1,-8.978037107E-1,-5.533345887E-1,-1.923238690E0,2.193416908E0
1.599379871E1,-1.248130866E0,-5.617621806E-1,-1.982049986E0,2.408719484E0
1.600383671E1,-1.553387682E0,-4.739241377E-1,-2.075905983E0,2.635716796E0
1.601387471E1,-1.694390949E0,-3.719130287E-1,-2.127996488E0,2.745477926E0
1.602391271E1,-1.666634216E0,-2.613073897E-1,-1.997773733E0,2.614775526E0
1.603394971E1,-1.775992644E0,-1.436172643E-1,-1.792284449E0,2.527263211E0
1.604398771E1,-1.889407578E0,-3.088411599E-2,-1.715157920E0,2.551976002E0
1.605402571E1,-2.014273991E0,9.322946817E-2,-1.678797010E0,2.623804650E0
1.606406371E1,-1.905551740E0,2.373990020E-1,-1.432613443E0,2.395801953E0
1.607410171E1,-1.860877551E0,3.174199024E-1,-1.188972831E0,2.230981185E0
1.608413871E1,-1.832514754E0,4.382751256E-1,-1.051175593E0,2.157583263E0
1.609417633E1,-1.755266604E0,5.664934552E-1,-8.078571618E-1,2.013581108E0
1.610421433E1,-1.619619386E0,6.384288257E-1,-5.535828030E-1,1.826803832E0
1.611425233E1,-1.411782445E0,6.528585845E-1,-2.877268642E-1,1.581815650E0
1.612428933E1,-1.332997061E0,7.524752587E-1,-1.147633016E-2,1.530761865E0
1.613432733E1,-1.201880267E0,8.387944874E-1,1.175997859E-1,1.470347604E0
1.614436533E1,-9.304446226E-1,9.349744606E-1,3.219348300E-1,1.357772614E0
1.615440333E1,-6.984013778E-1,1.049910547E0,5.723137736E-1,1.384781462E0
1.616444033E1,-6.720304352E-1,1.167211833E0,6.610382545E-1,1.500326612E0
1.617447833E1,-6.890396932E-1,1.192076240E0,8.695558119E-1,1.628480510E0
1.618451633E1,-8.044216302E-1,1.122820064E0,9.923771614E-1,1.700773790E0
1.619455433E1,-8.570670363E-1,1.021528455E0,9.821942353E-1,1.656137013E0
1.620459133E1,-8.814282909E-1,9.164569134E-1,8.911829084E-1,1.552744693E0
1.621462933E1,-9.613942274E-1,9.150942197E-1,9.595234108E-1,1.637791643E0
1.622466733E1,-9.629694673E-1,9.659951091E-1,9.544772637E-1,1.664777340E0
1.623470533E1,-8.235619059E-1,9.508745018E-1,9.437885535E-1,1.572626264E0
1.624474333E1,-5.362262204E-1,8.999899846E-1,1.157822959E0,1.561433488E0
1.625478033E1,-1.936451644E-2,7.804351822E-1,1.547313010E0,1.733098846E0
1.626481833E1,4.462109667E-1,6.722915134E-1,1.774694270E0,1.949517853E0
1.627485633E1,5.914408931E-1,7.617571288E-1,1.825931082E0,2.064969871E0
1.628489433E1,5.417307892E-1,9.604788458E-1,1.665888696E0,1.997793035E0
1.629493133E1,3.553361723E-1,1.120770907E0,1.290367059E0,1.745691372E0
1.630496933E1,1.040333685E-1,1.420544498E0,8.552055752E-1,1.661368769E0
1.631500733E1,-9.070785642E-2,1.768447689E0,4.451216304E-1,1.825861005E0
1.632504533E1,-1.702244344E-1,1.932250127E0,1.507113987E-1,1.945579820E0
1.633508233E1,3.546073169E-2,1.940718942E0,3.232925534E-3,1.941045575E0
1.634512033E1,6.822177467E-1,1.840391246E0,2.274268681E-1,1.975900800E0
1.635515833E1,1.377658387E0,1.561030870E0,7.786766320E-1,2.222857914E0
1.636519633E1,1.843693461E0,1.094409320E0,1.279154438E0,2.496632415E0
1.637523333E1,1.976971971E0,5.049319223E-1,1.548695292E0,2.561607216E0
1.638527133E1,1.912939405E0,-1.067301044E-1,1.596949439E0,2.494188444E0
1.639530933E1,1.750436219E0,-6.093520841E-1,1.409498230E0,2.328523605E0
1.640534733E1,1.423897583E0,-1.083670909E0,8.469691873E-1,1.979692848E0
1.641538533E1,8.952204108E-1,-1.366543415E0,8.370172262E-2,1.635807588E0
1.642542233E1,4.435835204E-1,-1.426980528E0,-6.686893362E-1,1.637127116E0
1.643546033E1,3.801552638E-1,-1.364207744E0,-1.350109230E0,1.956623553E0
1.644549833E1,6.382209572E-1,-1.283290758E0,-1.905585362E0,2.384411192E0
1.645553633E1,1.068362898E0,-1.154216689E0,-2.248234538E0,2.743751808E0
1.646557333E1,1.446076950E0,-1.015075175E0,-2.563190131E0,3.113110953E0
1.647561133E1,1.338449882E0,-1.164013114E0,-2.924992447E0,3.420812101E0
1.648564933E1,7.492665991E-1,-1.737038201E0,-3.480801870E0,3.961651651E0
1.649568733E1,9.891383886E-2,-2.393078548E0,-4.077394452E0,4.728821672E0
