Time (s),Linear Acceleration x (m/s^2),Linear Acceleration y (m/s^2),Linear Acceleration z (m/s^2),Absolute acceleration (m/s^2),label
246.8305663,-4.839074982,1.480434896,0.2413832948,5.066221478,0
42.08186,2.199781001,-9.943952694,-3.94497139,1.092172289E1,0
20.84555379,0.8366799881,1.326290013,-0.3426614553,1.605146558,0
58.76769142,-0.7729329121,0.273171975,0.4698799109,0.9448996483,0
151.9432111,0.1440991389,1.599063208,0.8819168258,1.831814672,0
274.2351676,2.732178172,-0.3068782496,3.540080942,4.482314681,0
344.7450027,-3.909241394,0.03929372773,-2.722182941,4.76382118,0
12.31808371,4.306321716,2.672831857,2.726893458,5.755378770E0,0
174.0131117,-5.699500367,0.7444134101,1.439732574,5.925477672,0
24.6528145,0.8560281323,2.906382514,1.198164069,3.258134530E0,0
13.15922821,-13.40277371,-9.618260443,2.771291074,1.672798049E1,0
123.5706352,2.64945235,0.2145015979,-2.029136005,3.344099522,0
401.1419,8.603603636,-1.792604584,-5.832671873,10.5477717,0
45.14653825,1.372456704,1.631269671,1.885697812,2.846143774E0,0
140.3487693,-1.154032355,1.537771524,0.8588641781,2.105749181,0
158.6144129,0.938319068,-2.546244608,-3.544500268,4.463998927,0
51.50627912,-0.458027751,-0.2411432666,-1.307146229,1.405905672,0
432.211767,-2.350250909,2.393097551,1.293202373,3.594852932,0
31.11891388,-1.456111941,1.384448758,-1.270043306,2.376966628E0,0
97.79221546,-7.626819829,0.6202678125,0.1748659542,7.653998365,0
32.5706295,-0.4293568061,7.931607115,-10.09012022,1.284154449E1,0
61.94500317,-1.735088739,6.284863372,-9.581581444,1.158951006E1,0
424.7730449,-0.3337175542,-1.840270209,-3.141220728,3.655848671,0
60.78506421,1.526417693,-4.527558721,-5.022809701,6.932341324E0,0
56.99245887,-1.083750139,-0.8923698932,0.3403114593,1.444524239,0
86.40894375,1.186935661,2.109160999,4.008521268,4.68248002,0
12.54080496,2.793821858,-2.109699089,-2.726447901,4.437317768,0
239.6632171,3.787396529,-0.5427701318,-6.558729996,7.593148955,0
358.6483911,2.435170022,-1.960586465,0.290382231,3.139788872,0
18.80576821,3.887757554,0.3198005962,3.702870349,5.378492358E0,0
114.6324965,-1.189166739,0.9826719528,2.809933276,3.205540004,0
59.3634055,4.631273709,-1.787789694,1.791000108,5.277553367E0,0
17.38253704,2.307289808,-1.364173538,3.939151071,4.764605636E0,0
382.8012636,0.3108385688,1.255780632,4.582935362,4.762027104,0
533.3340755,-1.257925537,-0.8954912831,-3.019225005,3.391165128,0
237.585289,0.4807837987,1.168676561,-1.854433919,2.244077344,0
206.3361516,-0.005364820361,-1.462600889,0.7890402371,1.661870824,0
395.3094257,-2.03037196,0.2520575331,-2.887119446,3.538559311,0
64.07460446,-6.452204252,1.55424006,-0.430580336,6.650714345,0
496.5207327,2.162524881,0.2486313571,-2.964283397,3.677676913,0
170.4482507,0.7140357361,-0.8487332922,1.314648352,1.720027768,0
24.51108037,4.131550194,-6.580406209,-4.020301069,8.748386912E0,0
15.28174508,-1.066435071,-7.993732027,0.6309625161,8.089199539E0,0
173.7721947,0.7011817288,-0.7000978012,-4.511968875,4.619486538,0
143.4981203,1.504429969,-0.4645472503,2.362440307,2.839055809,0
418.8803075,3.831949389,-2.712007617,-4.087815945,6.224874346,0
17.94694192,-1.289370401,-0.6551892847,-1.792317193,2.303074022,0
12.69686525,-3.138575447,-1.980802774,-4.725120935,6.008411048E0,0
1.969322625,-0.4911658955,-0.5433457902,2.039155063,2.16670763,0
94.68036646,0.9389722019,0.937172429,2.04141969,2.434616049,0
23.24106275,-0.06286166131,0.7496057376,3.508954459,3.588679666,0
181.1501074,0.3393115854,-1.428988754,-1.201537182,1.897586048,0
31.9999545,4.43614803,5.15593326,-4.103369538,7.943594821E0,0
362.6035922,-1.858483701,1.775275629,3.214615563,4.115740328,0
292.3142589,-0.1626607686,1.984526428,2.670880641,3.331427181,0
278.9030002,1.017258233,0.3456647314,3.136891449,3.315778398,0
548.2322685,-0.132696712,-0.05398427233,0.02395311892,0.1452462424,0
491.9128472,0.09556163013,-1.461984592,-2.863020732,3.216118574,0
120.7907414,-0.8628986838,0.4521005747,-0.7795630699,1.247680908,0
149.8269222,0.08652947266,-0.8708392757,0.653627201,1.092280601,0
487.7567191,-5.662721965,-0.227502151,-0.9478282486,5.746003452,0
48.21493025,2.000448834,-3.677556583,-3.110977759,5.215783793,0
238.28797,-0.3895701581,1.569273983,3.535037718,3.887271204,0
141.7601067,0.6171414524,-2.136760587,3.335955228,4.009389812,0
12.79865371,5.831140487,3.520302735,0.9209750569,6.873348950E0,0
51.09575946,-5.033629389,-0.8401095262,-1.548754349,5.333089993,0
350.3766166,0.3494372088,0.2650532623,-2.062797256,2.108907801,0
285.1669378,-5.042825305,2.504949524,1.230244233,5.763537113,0
60.53477221,-0.5440804929,2.683371463,-0.390903908,2.765738935E0,0
358.8290861,-6.101651394,0.2245987161,-1.591817338,6.309871374,0
78.84028958,1.34281249,-1.35278784,4.548543794,4.931777668,0
534.0167413,-2.750610934,2.718315008,-3.333412274,5.105559165,0
362.6337082,3.18992628,0.5421006256,5.269391463,6.183525624,0
275.37954,-5.598280386,0.4511866549,0.7354866122,5.66438463,0
267.2284066,1.307792346,-1.70072743,-1.855128568,2.836246925,0
296.2191856,-0.3161484253,-1.187282401,-0.8883126564,1.516142705,0
335.4895121,-2.570176969,-0.3575250775,4.180990157,4.920804052,0
28.92242608,1.804073605,2.190050211,1.653336478,3.283979751,0
22.70906183,0.1265495342,1.350942751,3.344302129,3.609074373,0
58.08204083,5.484784176,-0.978370741,-2.395121273,6.064377353,0
110.6507076,-4.458667704,-2.714903743,4.192093434,6.695077848,0
83.09935817,3.121206001,-1.627036872,-1.764304937,3.937251299,0
539.6286603,-0.05393354774,0.2842808077,-0.2382946493,0.3748449614,0
20.30754183,-2.291404531,-1.628674969,0.1327154231,2.814379197E0,0
94.61009846,2.394100349,-1.238072339,-1.747018229,3.211948363,0
397.3573155,-4.752004094,0.01179763466,-2.45456933,5.348513129,0
162.3586948,2.125071711,1.947188155,5.738722905,6.421869826,0
95.94723387,1.244142334,0.3264453721,-0.9164900963,1.579370389,0
269.8182952,2.825396238,1.212991146,-1.923036669,3.62660743,0
126.4675734,0.8888443145,-1.912241832,1.382241434,2.521369553,0
301.5395247,-0.3001293933,-1.519288183,-2.575437709,3.005194441,0
18.66408129,1.101429195,-2.195523643,-4.374977383,5.017359608E0,0
164.5507038,-0.04871381141,2.895938802,0.3797206695,2.921133747,0
330.4602321,-5.565648245,0.0853807506,-0.8692067331,5.6337599,0
135.7672253,2.347229068,-1.080858106,-2.63829937,3.693015314,0
20.15947158,0.9888395959,-1.253280362,0.1738710505,1.605847613,0
503.9696595,-0.797091853,-0.2131025054,-2.597899788,2.725775377,0
136.3594873,1.974180803,0.300798461,4.345842462,4.782699683,0
419.5629415,-0.2939991724,-1.010207661,4.217925264,4.347165578,0
27.14574846,0.581984776,4.609481136,1.724801148,4.955901696E0,0
16.46557333,1.44607695,-1.015075175,-2.563190131,3.113110953,0
26.49498246,-2.4551675,-3.234031827,2.348759869,4.690786953E0,0
122.024398,-0.7875490509,-0.6828356512,3.870497743,4.008397537,0
182.093882,5.180366435,0.4460884675,-6.446742368,8.28225081,0
440.9655878,-1.314899052,-0.3544231296,-2.067190708,2.475449998,0
156.7372515,-0.005588183999,0.06239227608,0.9207265502,0.9228550288,0
309.3192712,-5.697963719,1.139059536,-0.9043303728,5.880651375,0
118.531383,1.439379256,0.9203936975,-0.2730433363,1.730170473,0
267.0979086,-5.689334398,0.9145037971,-0.420962251,5.777720338,0
179.875436,1.041041198,1.544008895,-1.249387579,2.242476213,0
23.75298775,-1.039958294,3.124166738,2.786685916,4.313646886,0
24.61623883,1.993081343,-1.745768679,-2.788031361,3.846192973,0
25.45360808,-1.050440598,-0.7456392789,-1.972795597,2.356125177E0,0
29.93250712,-0.2184212789,0.8412118725,0.5237169796,1.014704264,0
289.1923237,0.2001864445,0.5555258328,1.968764527,2.055411717,0
32.7107355,1.121083514,-0.6526609486,0.2779187447,1.3266625,0
129.0853383,3.027463732,1.501545684,0.351129393,3.397567945,0
361.5294628,6.188248658,-2.151386374,-3.959473654,7.65508435,0
333.903431,-0.7723294795,2.582392387,3.003764382,4.035820081,0
57.8002055,-4.135047998,-3.064269031,-6.391028928,8.205706392E0,0
75.01555212,0.5595187867,-1.11062248,2.302445244,2.616829697,0
527.4611453,4.389056309,-1.622631287,-1.543900575,4.927512208,0
64.98804587,2.19139317,1.213821158,4.512946529,5.161613334,0
370.022112,0.2286857736,-1.914475761,-2.751194487,3.359551417,0
260.603118,-6.694320495,-0.1384860402,5.646156219,8.75854927,0
67.16242429,0.8448057175,0.6831939393,-2.805205802,3.008260337,0
3.995375,0.1875102657,0.2813569075,-0.1191153842,0.3584833105,0
314.9207025,-4.447876959,0.210434567,6.199964139,7.633311698,0
0.123584875,-9.998738766e-05,-1.335424241,-0.9042251229,1.612755712E0,0
74.35334571,-4.805349997,0.4885227348,-0.1014528461,4.831183678,0
349.9650356,2.218847601,-2.04375536,-2.424115861,3.86995586,0
34.77470283,-3.173566355,-8.630642331,-7.720447201,1.200686535E1,0
32.45570833,2.196008962,-0.6004596385,0.8387175234,2.426201604,0
450.813645,-3.336289689,0.7501916286,-2.666222749,4.336168829,0
422.8857612,3.247641222,-0.08401016325,-4.090203363,5.223408347,0
2.874856875,-2.3587551,7.808319157,1.16743812,8.239932369E0,0
17.04776433,-0.4862614703,-0.4276122893,-1.432659051,1.57220051,0
67.37304625,2.087847459,-2.685953009,-5.692419974,6.631522882,0
130.2989399,0.4630077515,0.3949390715,2.919798073,2.982544859,0
165.1424638,0.8903751156,1.12940666,-0.1602207255,1.447065282,0
480.9503167,-0.1734237385,0.3776469545,0.7490973222,0.8566445082,0
548.6438768,-0.01654995918,0.07792189613,0.1881020039,0.2042745381,0
391.2437653,-1.536389827,-0.4097088459,-2.376862903,2.859690945,0
50.86214479,-2.805708078,-5.35000644,-1.534642678,6.232952341E0,0
514.8318996,3.178237111,-2.783137826,3.929777985,5.769766226,0
179.1942845,2.927250057,-0.1191779494,1.53792779,3.308809177,0
139.079876,2.437788405,2.424207224,5.55408713,6.532034662,0
86.09819012,-4.047599965,3.180216393,2.879480059,5.898156254,0
529.4187876,1.942163789,-2.937096768,-1.476511415,3.818196376,0
153.0866105,-3.593339429,-4.385436882,0.949353641,5.74851435,0
373.4954695,-2.654597899,1.263194755,0.4994943041,2.981953312,0
389.9788947,3.459512742,-0.1317928787,4.815959185,5.931193863,0
412.2246358,4.182145566,-2.254662674,-2.141518174,5.21152045,0
318.5445765,-5.655587777,1.113950423,0.09963231549,5.765109301,0
27.45457813,0.7223670682,-5.393002771,-1.887870491,5.759370457E0,0
29.6887365,-2.498425201,6.780994942,5.875131429,9.313495059E0,0
58.34173621,1.6641281,1.509480355,4.460205229,4.994124944E0,0
546.8368177,-0.3880972445,0.2527612455,0.1877400613,0.4997539885,0
23.75418892,1.734390289,0.7610502005,-0.72361808,2.0275429,0
173.5714297,-5.98107713,0.9096890536,0.09880800426,6.0506678,0
61.84621108,1.710156797,1.360160155,-0.5883542942,2.262925693,0
2.58661625,0.979563573,2.887128802,0.3409248322,3.067782139E0,0
53.93667171,8.65407037,3.359823563,6.019723717,1.106428588E1,0
5.951213375,-0.6480308309,0.6410179728,0.1598734009,0.9254228783,0
54.77806246,5.301172249,-0.1553219283,-6.758029418,8.590547930E0,0
455.6222396,-6.390243062,1.185348434,-1.316863862,6.631318702,0
35.21375842,3.517479699,-4.564120191,10.92446878,1.235102727E1,0
16.44140242,2.014897743,-3.740396025,10.49966271,1.132666290E1,0
301.2484115,1.807746826,0.1970923904,3.202673795,3.682921861,0
23.89176887,-0.4436674279,-1.112938562,-4.182825013,4.351034143E0,0
162.5193067,-3.998220813,-0.3644076888,3.218446659,5.14557689,0
17.67613692,0.1592937957,-0.3022016466,0.1988754988,0.3952870002,0
330.5405401,-0.1424919677,-0.8515732849,-2.56512556,2.706538409,0
37.91623075,1.964220071,-0.8336091766,-3.373028037,3.991288374,0
18.45382829,5.873967249,-4.028727491,6.880279495,9.903150123E0,0
3.988175333,0.4077666932,-2.110862392,0.2351294053,2.162706534E0,0
10.71392675,-0.9258481264,0.9543325451,-2.348461661,2.698743696,0
154.8902041,-6.371206282,1.158267055,2.269624822,6.861854625,0
434.7515789,-6.489466218,0.5738404816,3.015793274,7.178960494,0
465.8919805,6.814139884,-2.674747404,-4.241915805,8.460533419,0
416.4910905,0.8671999687,-2.624252604,4.192768788,5.021757424,0
398.4816479,0.9521664441,-1.811360551,-1.955270907,2.83032371,0
13.58959158,-1.037495447,-0.6778068995,-0.6139171515,1.383008772E0,0
464.2656843,-5.739521635,-0.1544164869,-3.026372641,6.490368588,0
83.38018512,-9.265861035,4.305180924,-0.6293524852,10.23654473,0
354.2715757,-5.5333301,1.26269321,0.4749155331,5.695408756,0
6.090679458,-1.942173729,-2.248081926,-2.196189641,3.694476969E0,0
106.4081527,-3.95089228,-4.153769614,1.99754306,6.070710839,0
514.9624086,-5.528673962,0.6387787816,-0.6428444968,5.602456886,0
120.8910394,-0.4072246563,0.5388121516,-1.103554366,1.293824831,0
0.3338335,-1.5305239,1.351791182,2.449996807,3.189408591E0,0
318.9661915,0.3050024629,-0.2373133403,4.72533085,4.74110702,0
24.20552892,1.11243,1.283139608,-0.5631032395,1.789143096,0
210.3313659,-1.044913225,0.2603616026,-0.7492604595,1.31187768,0
189.88353,2.084171607,-0.8826855154,-4.01595191,4.609856261,0
105.8765806,-0.7404343799,0.7359533662,-0.4754967463,1.147156303,0
169.5561318,5.189933065,1.031765468,-0.4072650752,5.307147071,0
56.12919462,-1.929081813,-2.241535968,-3.338257862,4.459798839E0,0
484.8554633,2.464824176,-2.059342575,-2.859966731,4.300658062,0
64.62297067,-1.338409244,-1.084600031,0.5047433496,1.795121829E0,0
360.7163375,2.967147363,-1.19393507,2.492497294,4.054872031,0
553.0109371,-0.2089069819,-0.0980592683,0.2033345854,0.3075755205,0
141.2079997,1.546786761,0.4684987986,2.909957501,3.328647333,0
514.5608446,-1.701316976,1.156489574,-0.8245071083,2.216248984,0
47.40947296,-5.140596013,9.150151654,6.13977641,1.215927041E1,0
335.9211671,-0.7273257995,1.232501551,2.358393596,2.758637933,0
381.2151612,3.084489872,-0.7595193263,-2.860070227,4.274453074,0
359.9634442,1.188227311,0.1458510469,-2.91849736,3.154486251,0
12.420498,0.3639650546,0.8753237978,0.4977758074,1.070720816,0
27.25457137,0.8109819138,-1.360436144,1.703099792,2.325731512,0
160.7124155,2.647640297,-0.2023319341,-2.324416741,3.529001352,0
289.3228227,-5.762052711,1.650730082,-0.4643507838,6.011803631,0
119.7661,-5.457668298,0.3652926649,2.555595183,6.037437265,0
78.81674517,2.995996648,-0.5047562134,-0.5805770588,3.093193249,0
169.2047925,2.939940269,-1.988850005,1.991464587,4.069975962,0
4.00831625,0.6029121801,3.867413921,4.20310228,5.743384221E0,0
265.9435019,-3.690997578,0.1866431236,3.128263882,4.841934912,0
415.6377994,-6.722512261,-0.3146027139,0.164709633,6.731884968,0
263.1628872,1.504511976,3.348801561,4.339754925,5.684320627,0
2.32417825,-1.817491211,-19.99687176,2.069400078,2.018565261E1,0
141.2180377,2.237112549,1.058516918,3.610810032,4.3775655,0
556.8258416,-0.08701884806,-1.138352608,-1.801482704,2.132781956,0
242.604439,-5.41628463,1.411552942,0.5495651811,5.624112622,0
8.709440625,-0.08279423475,-0.09915766776,-0.7840958315,0.7946655909,0
1.1527325,-1.449151708,-4.334990614,-7.100041248,8.444096755E0,0
29.12655917,-1.356638524,2.161586988,0.5322007048,2.606945335E0,0
466.4842725,3.410810698,-1.94558324,-4.055027098,5.644658407,0
149.7065642,-0.2817777974,-2.901139315,2.772443853,4.022741972,0
542.3994832,-0.00223772943,0.09255353004,-0.1017573398,0.1375707802,0
272.9101054,-1.704228305,0.03497482806,-0.6005451541,1.807282998,0
19.72700537,-7.756929148,-1.092639953,-0.5949129698,7.856063475E0,0
187.3739795,2.811295093,0.7691199428,5.556043609,6.274117162,0
140.2083523,0.6182837791,2.206640954,0.9645490927,2.486341506,0
278.5315812,-5.521645024,-0.4345454791,-0.4632080917,5.558053191,0
390.7719483,1.273176244,1.705329335,-3.484374518,4.082890113,0
388.3626715,3.73931546,-0.9954608367,-1.469777761,4.13928364,0
361.8506978,-5.882741581,-0.3824790935,-0.3560439777,5.90590434,0
193.4470933,-0.06708452046,1.414989204,0.1262922567,1.422197073,0
502.1224844,0.4458940476,-0.3319351767,1.413295997,1.518686287,0
133.3981354,1.46668166,1.326413389,1.823085827,2.689641148,0
385.9835115,-3.47735669,-0.1962175007,4.698607321,5.848711107,0
90.25353371,-1.129628416,1.277430094,-1.323934169,2.158863054,0
22.14694783,-0.01274166763,1.629706126,3.54546038,3.902101192,0
412.7968425,3.605881999,-3.162633231,-3.853822653,6.152770351,0
493.7198604,2.71962303,-3.473337606,4.096863341,6.020358195,0
161.6320221,-1.821196884,1.214757298,-2.158212121,3.074129623,0
4.135794,0.006925296038,0.7876445067,-1.161374558,1.403289953,0
348.2283683,-4.962547127,2.681824582,0.4626262937,5.659777395,0
547.7102285,-0.1605850071,-0.004600589275,0.09894417129,0.1886760688,0
64.41588987,1.345938411,-0.2694689333,3.730316595,3.974849131,0
178.4320152,-0.2871865815,-3.13305626,-0.8564969328,3.260690825,0
397.2770065,-5.426499715,0.4012756991,3.207325839,6.316237835,0
442.7625321,5.536601032,-3.821906211,0.8671286327,6.783275768,0
141.9307577,-4.97853283,-0.06264370635,-1.367384244,5.163279292,0
18.834487,4.684818417,3.098609436,1.255434623,5.755433965,0
212.82085,-3.28517333,0.5086380337,5.988591387,6.849401671,0
386.927144,1.5624228,-0.0486893262,4.450600592,4.71713698,0
250.5648152,2.102551745,-0.8584471985,-2.864660876,3.655671944,0
110.8118937,3.472775981,-0.4451007266,-1.639017817,3.865833297,0
18.49554958,2.003991078,-1.458003808,-1.091677501,2.708046364E0,0
475.9609755,-5.641767883,1.307556995,0.326296999,5.800493072,0
242.694784,-0.5999202329,0.5662164433,-0.7208459151,1.095501794,0
247.3726346,-0.2889775836,-2.355449084,-1.594578539,2.859078374,0
432.482814,6.940325137,-1.985796004,-3.498200845,8.021777105,0
108.0814688,3.89511569,1.351884006,-0.5170991009,4.155346927,0
34.24260842,3.68974335,-5.27532931,9.788827232,1.171599095E1,0
455.2206865,-3.006262313,-0.09050956272,-3.544135401,4.648300852,0
25.24861208,2.933126509,-0.1916088715,0.8923231155,3.071837499,0
554.9786236,-1.169050782,-0.475227482,0.3459072447,1.308500177,0
18.57882,-0.3299209571,-1.107942701,-1.57048728,1.950080809,0
414.2323787,1.276295734,1.541158962,-2.631962158,3.306255669,0
0.754428875,3.382199687,-5.966158544,6.109605947,9.184857501E0,0
513.2758427,0.7883952892,2.744848503,2.266151576,3.645710274,0
179.604404,1.880251715,-0.2842293522,1.329342844,2.320190775,0
79.93442658,-5.977882211,-0.1268908654,0.1865010363,5.982136714,0
305.4043001,2.055193391,1.285757698,3.416745622,4.189408476,0
272.187345,0.3935065037,-2.084649617,3.840941822,4.387874824,0
8.047467042,-0.6203887036,-0.2414211555,3.427505084,3.491555157,0
15.18147658,-0.5248041232,0.4311883003,4.318787395,4.371872285E0,0
548.4631705,-0.01485952914,0.01291372195,-0.03625675701,0.04125678428,0
419.4023215,-2.244107573,1.540570001,-5.472661729,6.112233726,0
21.63764925,-3.506402442,-2.780736959,-3.552661226,5.713909162E0,0
111.0619246,2.476481478,-2.71424827,-5.5103751,6.623015773,0
217.568943,-3.666365013,-1.128613485,-1.980183116,4.317073775,0
85.81736313,-1.33460563,1.39373706,-2.090109747,2.844685209,0
124.8153913,2.163238242,-0.3960759164,3.380650175,4.033022617,0
439.1887227,2.116900812,-1.690328596,1.425058256,3.060926468,0
177.8376777,1.992679639,0.5948178063,-2.630850018,3.353498499,0
463.6332373,-1.539110536,4.622207309,4.197387503,6.430530577,0
14.62866433,0.9129193479,-0.5651591206,0.3294385618,1.123101212,0
19.89705746,1.942037635,-0.0926000154,-0.2284197253,1.957616027E0,0
33.63188617,-1.34405093,8.829744701,-3.539911957,9.607384715E0,0
24.50106838,5.243088348,-6.06283173,-0.7769151583,8.053042976E0,0
47.42813392,4.401350372,-9.781241055,1.44611174,1.082292940E1,0
39.29139796,-3.983772928,1.198682425,1.357686052,4.37613959,0
505.2847699,1.621552768,0.2245349814,3.457491944,3.825454206,0
358.1163475,0.7602222347,-1.679981363,1.642656539,2.469533505,0
47.40417142,-0.6947947421,-0.6869691941,-0.1685816592,0.9915070263,0
303.5773146,-4.398244624,-0.5828792538,-2.555283526,5.119939247,0
121.9845768,0.001048990488,-1.011883254,-2.722304564,2.904281487,0
39.0396955,1.494184916,-0.2678855073,-2.208619067,2.679990558E0,0
301.8908677,-3.239807707,2.476113103,1.565374036,4.367823938,0
316.0951983,-5.282004492,-0.3012286699,-1.896904585,5.620369843,0
135.1433155,1.641669675,1.270401156,1.36876945,2.486469028,0
15.44193508,1.664749659,-0.8814110416,-0.2331513105,1.898061217E0,0
536.8076428,-3.699946741,2.107755767,1.651920283,4.567393226,0
123.6609802,6.663992742,-0.9437261344,-8.58790737,10.91107562,0
191.3390701,-0.6950257802,0.6339716394,-0.9364562912,1.327377588,0
131.1495871,2.035342094,-0.6284974761,2.252066218,3.099907864,0
37.85688138,2.536109921,-10.06803295,2.355140351,1.064630579E1,0
167.8395892,-5.254271148,-0.5998598604,-1.307415347,5.447617097,0
235.2363267,-5.625053033,0.59108509,-0.4884050596,5.677071666,0
439.4597697,1.384364558,1.73192715,-0.5675455154,2.288699368,0
56.49607133,4.638680377,-3.869638787,-3.150273387,6.812905576,0
322.1684562,-4.598826925,0.6476146553,4.542042274,6.496057408,0
330.4702701,-5.565962241,0.2061861263,-1.283864955,5.715833938,0
363.9286845,-2.945530207,-0.3605685532,-2.162746491,3.6720063,0
157.1486887,1.38343032,2.033660434,1.380081765,2.820333294,0
175.162282,0.7890725429,-1.047458518,-0.5442844145,1.419876878,0
53.34169317,-1.064330658,-2.057748039,0.5067179543,2.371474189,0
435.6751481,1.225433144,-1.503908982,3.470769802,3.976137778,0
350.8885825,0.8465195364,-2.533499724,-2.713394576,3.80758799,0
63.10720408,-0.3701790369,1.349131576,2.754588211,3.089489398E0,0
142.9364528,0.1059250159,1.410301638,-0.09535200745,1.417484682,0
101.7543891,-0.8675035854,0.438318395,-0.01212599237,0.9720249615,0
53.61670971,5.169680648,-2.218607866,1.908194389,5.940456607E0,0
292.5551795,-0.3747199845,0.2515945798,0.3179049289,0.5520674263,0
443.9872636,-4.686991827,0.3820576555,-2.154118339,5.172435235,0
134.8537367,2.204331304,3.826677247,6.291863658,7.687007451,0
333.51193,-2.96813028,0.7006262434,-2.180081877,3.74879067,0
47.51823892,-3.041436823,0.9003297079,1.364983377,3.453130631E0,0
176.054939,1.119037939,3.03471194,-1.042294257,3.398249518,0
363.7479905,0.9244617516,-1.549336731,2.502911185,3.0853911,0
102.8615411,-3.903145087,1.370580186,0.7357931525,4.201716694,0
547.1881897,-0.2628837991,-0.02244643763,-0.2314252672,0.3509549668,0
30.49818013,5.892367852,-1.88256312,-3.257883497,6.991269390E0,0
14.98814162,0.1075946152,-0.977021496,1.612329955,1.888320812,0
57.64002104,2.859575552,-3.369721144,11.08278565,1.193148485E1,0
108.4829988,-4.755935177,0.543746763,-1.615551917,5.052186452,0
309.4698471,1.768660528,1.650150331,-2.610567781,3.558963376,0
428.5978097,2.541910359,-3.254208815,1.659839167,4.450421255,0
137.2997165,-0.7231919642,-0.8697318131,-1.052652014,1.545158991,0
33.600009,2.286399314,0.7807775366,-0.8938587405,2.576085952,0
53.69553596,-7.474309827,1.25577727,-1.659128438,7.758543105,0
19.015167,6.858685142,-0.7731910667,2.741955301,7.426823357,0
121.753595,0.2864579088,0.752289902,-1.507809221,1.709235758,0
167.1770648,3.053587337,3.397797135,6.48717294,7.934282183,0
184.0412932,1.36683753,0.3993142506,-1.936286898,2.403519015,0
4.328580208,0.1918085539,2.534531758,3.043634791,3.965394620E0,0
182.8467463,-3.556325092,1.440170092,1.032416555,3.973338898,0
146.4669385,1.374699696,0.5685130835,0.7167212892,1.651270961,0
301.0275675,0.2679094809,1.05692706,-0.770847795,1.335318922,0
50.4732315,-0.8585824884,-0.6267668465,-0.6359729952,1.23873412,0
157.3797023,-5.742056403,0.6100822552,3.879463863,6.956554604,0
164.4466556,1.973296119,0.2372038512,3.721094951,4.218614805,0
75.02588371,1.536871052,-3.560911648,-2.601763628,4.670250354,0
476.7741259,2.770542338,-0.8659434021,0.1198134687,2.905188134,0
70.01699383,2.363054557,-0.7807325862,1.160095772,2.745795406,0
221.5440975,-0.9936898613,-0.6044804764,1.706299388,2.065011813,0
30.3595245,4.344507835,-5.425638421,-5.39547322,8.799058578E0,0
403.6917302,4.137708482,-3.104036529,-3.907889518,6.482844648,0
164.7879576,0.482874763,-1.994786975,-2.802759912,3.473874816,0
139.4412545,6.171458963,-3.135203943,-8.131409397,10.67877466,0
443.7864886,2.880750659,-2.346087692,1.864742999,4.156936164,0
37.41465567,0.2991511542,-0.5848911345,-0.6991357881,0.9593643221,0
463.7436643,-5.135589042,-0.3583786248,-0.7407379965,5.20109631,0
19.93725338,-3.866713425,7.933689308,5.166493331,1.022680557E1,0
21.23878963,-0.9498161557,-6.140479245,0.1935546787,6.216518278E0,0
87.36255987,1.237195695,0.4988674825,2.083979234,2.474366868,0
77.2643345,-0.4768597323,-0.1551316014,3.645261242,3.679591083,0
36.58121321,-0.632027294,-0.5360303387,3.594943612,3.689228456,0
77.8666105,-5.126408914,-0.7685798062,4.655190575,6.967178953,0
173.9286097,-0.8783111402,-2.259343663,0.8873898196,2.581380433,0
289.4131688,-1.249980925,0.4783085261,0.9057651334,1.616057497,0
59.58226879,4.429381339,-3.484354053,7.046914616,9.023255943E0,0
7.030052833,1.225750648,2.531875075,4.000165597,4.890212762,0
357.6344965,2.588617333,-1.30162865,0.7298345473,2.987948344,0
119.635602,0.6580082273,0.4416590555,1.432816926,1.637376527,0
374.1178635,0.08069508433,-0.5922649851,-2.750958844,2.815149032,0
60.33050608,3.509667234,-1.344388022,2.316368926,4.414828224,0
61.97503717,-2.056825933,8.465442116,-8.903353545,1.245648215E1,0
149.8208643,2.548799549,1.900263372,-2.612073439,4.11464551,0
320.6325736,-2.73693839,2.228050242,0.5359207034,3.569628921,0
294.6331221,-0.6315501612,0.2421935727,-0.8030185908,1.049929612,0
107.3687468,-4.874126701,0.01565314248,4.530748085,6.654700168,0
59.37949463,-0.7412719935,2.854400766,-1.678131743,3.393112738,0
169.1144485,3.595726554,-0.8431401381,-3.504261484,5.091167184,0
174.791177,1.135062087,1.715791174,0.2573593497,2.073291858,0
48.61053608,0.4987898608,1.173114012,3.349487439,3.583860198E0,0
108.1216218,5.594014258,-0.8038977197,-1.412164561,5.825242983,0
25.04312562,-0.4945884901,2.116597926,3.68804298,4.280918777E0,0
5.750614375,-0.5617823535,0.1976662946,-0.8968254715,1.076553437,0
47.16097033,2.123223991,-0.07335843667,-3.498655173,4.093171093,0
500.5363247,-2.740777087,-0.2839763139,0.3215453323,2.774147254,0
119.7777397,0.6129944609,-0.06218119159,2.363597764,2.442585331,0
77.2141455,2.634743094,-1.305125138,0.02017230928,2.94034517,0
370.4437335,-5.358261539,1.530836872,0.5908960788,5.603890294,0
148.7568054,2.092592767,1.202100415,-0.8108719862,2.545879666,0
37.43471467,0.2144087002,-0.4933406943,-0.9044771379,1.052347388,0
385.9433565,3.769726828,-2.711221166,1.911234211,5.021391917,0
75.607294,0.1712732057,-3.998476337,-9.139882189,9.977704844,0
42.90421158,-1.975416319,0.5541903287,-1.053450159,2.306329073E0,0
115.1941595,4.301552142,-3.173616056,4.142082199,6.762546462,0
2.01379525,-10.37962522,0.4181525177,-8.282103839,1.328550772E1,0
258.9869507,3.434036424,0.7375476095,3.529167114,4.979116704,0
23.41120287,-1.24551336,-2.26580659,-2.849309596,3.847563931E0,0
175.7698021,2.937259321,0.2991181174,-3.910932409,4.90024043,0
152.7857155,3.097575063,3.476867863,0.3153695762,4.667230376,0
133.3078311,-3.918535543,1.176390792,3.458978307,5.357550469,0
106.5184798,-0.4148188008,0.9760780478,3.334494594,3.499093767,0
6.583098625,-0.188095572,-0.05248051465,0.1171361017,0.2277169624,0
53.49616471,-2.102894391,-1.111986635,-1.320156283,2.720568270E0,0
116.0165955,-4.981088063,3.788261917,3.748525701,7.29476604,0
485.0863593,1.86340881,4.186779192,1.564901435,4.842553965,0
103.1184223,-0.6055527095,0.6367845887,-0.3021642244,0.9292426567,0
400.529539,-0.2814668351,-1.376034761,-2.65753554,3.005859343,0
159.688511,1.759856375,-1.738373705,-2.944027473,3.845300425,0
59.2733005,-0.1991048558,-20.13114722,-3.580164482,2.044799034E1,0
177.5264927,0.5628325135,-1.499903932,0.4905574197,1.675451827,0
38.5385685,2.159601858,-0.6109146063,0.7357380424,2.361865218,0
9.124428875,0.7357305872,0.8216256005,-2.725367335,2.940067216E0,0
224.4953515,-1.635065684,5.174919754,-1.091921915,5.53584029,0
158.131612,0.1161419289,0.4092524707,0.5186056361,0.6707669776,0
15.17146458,-0.4903953056,0.5153566307,3.812171767,3.877980607E0,0
277.9593958,-4.274806978,1.761184424,-0.5536792821,4.656426314,0
402.5975121,0.6993989128,-2.330998221,-2.521947965,3.504701568,0
50.29283588,-3.39618038,6.27381038,6.727140917,9.805567947E0,0
11.09677733,0.6150045875,-20.02311874,-4.332105013,2.049562511E1,0
360.2545632,-3.772733467,2.972982592,1.074003269,4.921953507,0
5.454119583,2.419636894,3.09296775,-2.760464078,4.800130636,0
421.3498347,2.618149865,-0.04559936509,-5.245160601,5.86246516,0
25.27339608,-0.9687921247,-1.355921947,0.3436391097,1.701520010E0,0
417.6856992,-2.672166443,-0.8698129432,-3.172123847,4.237855325,0
17.76299629,2.689925022,4.023112995,-7.635750867,9.040233741E0,0
3.446553,0.4750792551,-0.5961940947,2.851142113,2.951297858,0
179.443793,2.818270236,-0.9754947149,-2.430193457,3.847086859,0
36.18100717,0.5533099573,-1.433436146,-3.379355017,3.712267693,0
351.9024757,1.363899888,-1.741171305,-1.984727426,2.971707148,0
44.49578625,-1.113041181,-0.7899418777,-1.765366207,2.231453939E0,0
169.2248695,5.585542227,-1.175433895,4.485065836,7.259183312,0
199.7209711,-3.97883437,0.7501015815,0.8556610733,4.138348849,0
60.82375137,-0.5697281349,2.313300015,-2.568270192,3.503135579,0
291.4308819,-5.14904524,0.612867284,0.2210529645,5.190099961,0
55.63282358,3.663605127,1.954912765,6.936514506,8.084486375,0
64.382686,-0.7730330457,0.3834902233,-0.4504004967,9.733989154E-1,0
469.0040273,2.861579978,1.173959008,-8.338700209,8.89385973,0
254.9515527,-1.444544687,3.093824952,1.820558075,3.86948238,0
143.2457762,4.547331666,-2.334921849,-2.585897208,5.728608006,0
541.1646609,-0.1087172806,-0.05573887557,-0.01966126263,0.1237450387,0
126.5118726,-5.527930781,1.063510733,-0.5631055784,5.657398845,0
527.6318119,-0.7211178106,4.969921635,2.72391781,5.713130508,0
127.6863586,0.4461653584,-0.09081208304,-1.330284538,1.406046697,0
74.55410271,7.047141488,0.9451395527,-7.870431206,10.60656303,0
451.506323,-2.922171165,1.085349206,0.6362653559,3.181493489,0
33.80356333,-6.255876385,1.702562433,6.397159733,9.108148046E0,0
310.9956833,3.335634216,-1.391296871,-2.654422483,4.484207993,0
171.3208477,-0.8675296786,1.299819083,-0.4283926003,1.620388105,0
376.386589,0.8340105879,1.943131064,4.160436024,4.666964742,0
561.3535366,-1.183932531,0.7406358165,-6.259912718,6.413793331,0
47.55244133,-4.087317762,1.489083074,-0.2047333856,4.354934058,0
408.9018207,3.317819504,0.6226675098,2.855474315,4.421467478,0
57.33346387,1.416365785,1.287453976,-0.7625997126,2.060385425,0
43.183155,4.379537334,3.093586385,-6.001218449,8.047685807E0,0
23.08045883,6.494825191,-0.5724693096,-7.637458838,10.04197455,0
154.3904866,-1.944162952,-1.879089873,-0.6768652055,2.787273729,0
20.34773838,-3.000918835,4.582544768,0.8969079173,5.550646288E0,0
270.7016694,-5.294697043,1.163936954,0.3536784866,5.432647097,0
285.5383585,4.136468287,0.1654017971,2.95679516,5.087274837,0
556.8358806,-0.083411116,-1.021705772,-1.860313733,2.124054445,0
62.70930812,-3.923665598,2.005685601,-0.01900929809,4.406618636,0
86.17806775,-14.73163416,2.561502625,11.81555521,19.05753619,0
139.7770713,-1.278111002,1.003451788,-0.6568019468,1.752675675,0
6.289052375,-2.105643606,-0.87194323,0.3393571206,2.304166497E0,0
243.9796881,2.375862299,0.3113228644,2.472050166,3.442771501,0
46.35106275,-0.2882357182,-0.8567849082,0.832061711,1.228611777,0
17.4593125,-0.7135702246,-4.439834407,2.337782891,5.068189112,0
309.7609611,-4.20824169,-0.04185802415,5.216785233,6.702678448,0
28.79193508,0.9188665509,-1.298849468,-1.390116026,2.112758444,0
226.1115156,1.2072752,0.1393806642,4.748584642,4.901632023,0
38.93935387,0.953335741,-1.219891738,0.1281756449,1.553516618E0,0
3.142831667,-0.4948628707,-0.7212610674,1.993694131,2.177136439,0
59.45973162,0.6953573173,-2.131497801,-0.6924902813,2.346560774,0
148.1720031,-0.8543061273,0.4285576379,1.702563895,1.95249185,0
35.10362742,3.066309709,-2.054270115,3.486923612,5.077491232E0,0
551.1837985,-0.01980218053,0.05649711326,0.03792847596,0.07087044129,0
533.4043505,1.840851422,-1.194551221,-1.739022161,2.799979402,0
554.9083496,0.965426175,0.07197644725,-0.6871197599,1.187165478,0
56.25841992,4.174358245,4.22484252,-16.26488403,1.731534041E1,0
384.8591835,2.006959709,1.372004129,3.496582335,4.258681795,0
9.190876625,-2.020306856,-1.373303673,0.7989296329,2.570192858,0
341.1411812,-5.948533282,1.96011708,0.3842461221,6.274930458,0
346.822975,-0.3785832399,-1.660820622,-3.056288166,3.498935233,0
57.32966104,1.194582211,-8.832609837,-2.085362685,9.153729334E0,0
1.287283625,-0.4206975914,-0.1656764701,-1.082480416,1.173115087,0
58.80226521,-1.022209656,1.209759098,-1.527860493,2.200633395E0,0
37.52649088,-1.688609661,10.09453721,-8.370397965,1.322174898E1,0
10.405812,-1.209966089,-1.487698892,1.745014388,2.592747798E0,0
64.39055375,-1.761792681,-1.006709564,-1.257764153,2.387330782E0,0
314.6295885,3.126951767,0.2253743492,-4.890659119,5.809231237,0
544.1663855,0.02525587857,-0.02128181845,0.222393731,0.2248327085,0
321.6564952,-2.273227292,2.383829276,0.6077512626,3.349562051,0
26.96370938,0.5607403797,1.356966406,0.2371045947,1.487281476,0
20.76823462,0.2755485758,2.809990579,2.60440043,3.841207580E0,0
313.856631,-1.761304731,-1.074343577,6.21112472,6.544805479,0
57.73150387,5.490253662,-0.3512311345,-7.365006655,9.192908768E0,0
377.2398708,5.575678559,-1.164365262,-2.641987209,6.278856128,0
337.2763639,3.646899632,-1.845068872,-1.501048086,4.353998326,0
301.3287185,-1.57803662,-2.16078475,4.587697334,5.310946916,0
86.69000875,2.722479395,4.793726317,-1.702388332,5.769734144,0
24.22215862,-2.561445614,-0.7186064315,0.5161676395,2.709949791E0,0
464.5166563,2.185441874,-1.238543625,0.7690024137,2.627072745,0
77.8364965,0.05566023052,-1.791026859,5.896439268,6.162700002,0
255.403276,1.817662534,-1.038132209,3.544961028,4.11683911,0
151.9690606,6.369206534,-2.306532155,-2.92217175,7.377395895,0
35.07486712,-2.223556072,-2.862549446,-3.255506312,4.872033691E0,0
443.9069536,-4.003039504,0.01221132517,1.474673489,4.266044571,0
16.52321571,4.241134909,-0.7735404378,-0.5577870242,4.347035368E0,0
309.7208071,-0.4983494192,-2.156591273,2.93571741,3.676639059,0
5.008399667,0.1039125139,0.7921304905,-0.4753067118,0.9296155092,0
353.4885677,-0.05978427172,2.997021373,-6.36823765,7.038477253,0
28.71891142,0.3697412266,-1.433381621,1.369694479,2.016768309,0
12.76861771,0.9832169133,2.143324379,0.1323183972,2.361792339E0,0
49.51056817,-2.535162088,-0.5637142736,0.1570562855,2.601823835E0,0
48.49938692,-1.8206069,2.643496376,1.032246401,3.371678396E0,0
385.6421975,-1.980195833,-0.03705015108,0.8148122786,2.141603909,0
553.5430151,-1.670312115,0.2144138896,0.7381981122,1.83870942,0
317.1291562,-5.347792684,0.5827606284,-2.219808299,5.819454049,0
251.3076492,-2.308835666,-0.7821960711,5.011847926,5.573255104,0
39.98939613,1.129598303,-0.8497050995,1.494983792,2.057417707E0,0
33.911179,-0.6861777735,0.2177346696,1.431137606,1.601999741,0
362.9649812,1.791293346,-2.14441547,-2.389911404,3.676809225,0
472.236547,-1.017542408,0.4708094721,4.238318013,4.384106943,0
59.47303558,-0.8958068866,-1.435379761,1.481401441,2.248851988E0,0
333.632392,1.897171803,-1.24902052,-1.204531175,2.571032567,0
80.32590746,2.62616289,1.013629598,6.097871754,6.716265064,0
216.7056526,5.266571935,3.05830604,-4.643480941,7.658454873,0
265.7929269,-1.032219504,0.8448875785,2.147667691,2.528198694,0
80.80259225,1.771839952,0.135848946,0.3999776173,1.821497693,0
134.1610911,-0.5351208043,1.239789813,-3.114559178,3.394688782,0
40.1847545,2.010913596,2.925619268,2.907085934,4.588482344,0
16.28120842,-2.910070645,1.635075039,1.936592123,3.859063435E0,0
28.99974342,0.2707022573,-1.34338274,-0.6170174915,1.502886384,0
211.2649219,-5.212505656,1.05960757,1.680557021,5.578284263,0
41.17194171,0.8676852876,0.3866126364,2.061985517,2.270271208E0,0
485.1265153,-4.030453005,2.339007152,-0.5017496482,4.686924214,0
17.8909365,1.651384678,0.1830421159,0.7535587478,1.824397587,0
10.77415375,0.3311213905,-0.5956238085,-1.29139266,1.460172626,0
196.2076008,2.232709011,-0.8699227247,-2.803164539,3.687748162,0
405.5488915,-3.404206268,0.1216046901,-2.670431575,4.328349895,0
28.94959542,0.5667372841,-2.133299913,3.269791644,3.945085178,0
124.4415659,0.115165992,0.8873661384,1.270748481,1.554182605,0
452.0283416,-7.115273244,1.31077925,5.276308134,8.954590058,0
21.88940971,1.386815419,-0.8266004115,-2.554135133,3.021610750E0,0
556.384116,0.4128438306,-0.4681580521,0.629971413,0.886834805,0
61.83574437,-0.08091230839,-2.459875385,-2.53938904,3.536386632E0,0
34.15501113,0.2723920661,-0.1888899162,-1.565939316,1.600638241,0
252.7732415,0.7681937438,-1.381660514,1.527493288,2.198259117,0
448.5047212,-6.786442208,1.761027865,-0.861475106,7.06393349,0
501.1386637,-1.649324704,-1.311010069,-1.013562208,2.338017906,0
273.7332496,0.2399890262,1.217184915,2.941257062,3.192197825,0
284.092833,-1.25786648,2.73093213,3.415193186,4.550138776,0
551.8363475,-0.1058954144,0.08046850473,0.04658198968,0.1409216122,0
254.4496377,-6.57873566,-0.9847088304,5.672400277,8.742170169,0
548.0716405,-0.1142095703,0.1400947554,-0.05153443515,0.1879525591,0
467.5985862,3.606153894,-1.287986511,0.810396169,3.914076789,0
511.1375231,4.515797632,-4.074253328,-1.953609713,6.388157742,0
119.073454,5.082225598,-1.726278155,0.1943759932,5.370924997,0
234.3429177,5.566364529,-2.395133844,-2.291489316,6.47858036,0
113.4790808,-1.345360414,1.50344369,-3.203184257,3.785594663,0
108.7952157,1.196322488,-0.1665298712,1.4414825,1.880635928,0
17.94489896,-0.8166206762,5.009478634,5.893911517,7.778170638E0,0
515.4744016,-6.278979903,0.9333474728,-0.4469925933,6.363688279,0
15.69023137,0.5420484392,-0.2109195936,0.6710258836,0.8880198882,0
49.81091863,0.3507806066,-6.116808547,-6.834965327,9.179060129E0,0
20.82830462,3.522262722,1.679339046,1.606242419,4.219778314E0,0
60.6334855,-3.192332117,-3.973902828,13.17152452,1.412345376E1,0
52.43903275,0.1683670664,-1.181850922,3.700266584,3.888070455,0
58.13149562,-1.241691912,0.9977285331,-1.01504974,1.888805709E0,0
278.1601628,4.827888674,-0.2371656981,-5.125051775,7.04492103,0
18.56879,-0.3371777903,-1.08301836,-1.161900807,1.623770647,0
84.67399575,1.587596525,-0.08168911099,-2.447991797,2.918869589,0
59.77388408,2.932691183,-5.491271077,-6.613064078,9.082254793E0,0
45.356781,-0.8275713417,-1.439759325,-3.14565701,3.557097028E0,0
230.6889781,4.873194655,-0.8872068018,-1.740997058,5.250355494,0
175.25255,1.068615498,-1.652597975,2.110688145,2.885831526,0
149.0679924,-4.977895483,0.2672550313,5.919838071,7.739208712,0
261.18534,-6.767931678,0.8245040385,0.5682844573,6.841611895,0
525.2023287,-5.792374032,-0.1555982092,-1.776485418,6.060668954,0
160.2406155,2.992361142,-1.106016628,-6.760414497,7.475339602,0
15.18162608,4.698904944,0.4686730456,-4.332071392,6.408291866E0,0
39.93073783,-0.9064241146,2.97027387,-0.07795739969,3.106478536E0,0
34.24389912,0.4796921235,1.176168598,0.7375403005,1.468823611E0,0
371.6383271,5.148983259,0.1519948626,-8.808797636,10.20441311,0
161.5016341,-0.2616419236,1.08967483,0.9103006724,1.443778046,0
203.1138842,2.541788152,-0.01214934468,4.312260733,5.005639544,0
18.38527121,0.323994804,-1.208849856,1.185139981,1.723614627E0,0
532.2598811,-1.307609328,0.3253763549,-1.662627266,2.140103117,0
520.5441561,-6.39565466,0.8300349198,-0.2387915164,6.453710397,0
53.62252117,0.1076409544,-0.01079045177,0.6938884968,0.7022707846,0
159.317094,2.834889777,-0.04902758762,4.343657357,5.187134372,0
67.698256,-6.268151445,0.3289810172,-2.684842038,6.82688273,0
47.69844992,3.86329982,-4.031877971,7.919708616,9.690351389E0,0
11.30517375,1.431365355,1.05363727,1.930278153,2.623915400E0,0
215.5111001,-4.171988368,2.069803244,0.623479688,4.698755083,0
80.33120479,0.5232178832,-0.5619039756,-2.664574711,2.772986012,0
223.7123656,-1.175275143,4.777050058,0.08144469738,4.920173996,0
7.192123,-6.224400823,8.004973299,8.630645839,1.331581055E1,0
116.1021025,0.4870409042,3.833337518,4.536353518,5.959042592,0
318.6951535,1.448825433,1.450329337,-1.625883362,2.616495181,0
36.41057221,4.080690528,-0.8816817677,-1.404102566,4.404645495,0
25.2835565,2.55576446,-0.2382775462,-2.125721337,3.332776525E0,0
103.8806772,-2.256130764,2.147464793,3.151213619,4.430787552,0
237.69571,1.889152347,-1.318531196,1.011121873,2.515907102,0
14.37066588,-2.618555662,2.202801672,0.5441570914,3.464863042E0,0
312.4713295,-0.05163734615,0.700236965,-0.6842176406,0.9803835996,0
360.6259905,1.638478703,1.035111976,3.891089298,4.347027166,0
16.64164342,-6.457201282,-3.812401562,-2.275650963,7.836353832E0,0
112.7870319,-0.8610892629,0.5670542032,-0.9860668463,1.426657987,0
48.5207685,-3.89328902,6.531941562,9.437689068,1.211998081E1,0
98.29416325,5.126245776,-0.7064401299,-2.949638169,5.956325943,0
29.50461587,-1.024032233,0.7619514026,3.158160111,3.406345144,0
446.0652948,-2.996657676,-0.6279797052,-2.735946118,4.10605856,0
135.5244477,-0.4302368121,-5.439967023,-2.132671045,5.8588933,0
36.43645058,1.316359979,-2.04511513,-0.8391988224,2.572849423E0,0
95.87702588,0.6449184311,0.3954284835,-0.8583904074,1.144166754,0
240.7272762,1.361905988,0.910951906,-5.284175563,5.532371343,0
19.50674537,4.488534404,-1.683219844,-5.439769387,7.250604190E0,0
198.4059665,4.014320537,1.15518126,-0.51155309,4.208431974,0
210.6525899,0.3088575321,-2.538009682,5.055651172,5.665376854,0
39.24120896,-4.935827106,1.083800425,0.1823606229,5.056705249,0
495.6473427,3.417637323,1.271889565,4.170882075,5.540235123,0
60.87376275,1.844982187,2.202531531,-5.671173531,6.357461257E0,0
515.5346366,-4.850194048,0.1786205976,0.2949627936,4.862436701,0
231.8835349,1.806661583,2.583811507,4.80632999,5.74812282,0
135.5564203,-2.77146269,-0.7106242512,-2.171750764,3.592004128,0
187.4542845,2.11920403,-0.4545083119,0.8323124103,2.321712186,0
172.6780266,4.530567698,-1.074878304,-1.507609831,4.894312459,0
48.72685425,5.671609148,-2.572869027,-2.945204517,6.889196979,0
41.89303075,-0.8646406424,1.364694525,-0.2748062718,1.638753512E0,0
89.30764837,1.353507632,-0.004586555958,-0.814047609,1.579454797,0
33.95226442,4.799624111,1.7355916,-2.256495484,5.580362146E0,0
21.21343658,-3.000810953,-1.652043367,3.199089159,4.687033722,0
193.145947,1.869103414,-0.729315607,0.6559137547,2.1108462,0
91.08669871,0.722122947,-2.461777485,-0.5431314167,2.622365663,0
455.4415405,2.411963593,-1.402998319,0.8480123305,2.916350042,0
63.28655663,5.126042878,2.448695217,-6.744885462,8.818497817E0,0
73.14002913,2.13395714,0.8094803488,3.693143798,4.341467796,0
341.2415662,-1.900440397,-0.279743953,0.4715807198,1.977958229,0
460.4107651,4.240900728,-3.760791113,-2.592664776,6.233032923,0
174.59058,0.8391586228,1.77543979,0.5564339054,2.041076268,0
217.99055,3.446740084,-2.918290953,0.5441155761,4.548901082,0
434.2295629,-4.885780787,1.872752661,0.005797368139,5.232407671,0
37.26762196,2.114961875,-3.17492057,-1.592145367,4.133776872E0,0
19.16634258,3.598584966,1.117482433,-2.381824704,4.457765098E0,0
265.0802053,1.262741888,0.3650375801,-3.216691325,3.474891738,0
2.400613667,-1.127066385,0.5146081871,-1.365976235,1.844177675,0
98.40449013,-2.935217765,-7.964475483,-2.938268258,8.98230446,0
17.48557092,-0.06645250954,0.8168004781,-0.2532797474,0.8577468085,0
165.7917841,-0.6125595742,-0.8118528566,-1.922413648,2.174858278,0
458.694124,-6.080404367,1.034245857,-0.3966314019,6.180477184,0
30.32770946,-0.1305554616,-0.2796065435,-1.149544763,1.190242711,0
74.42380912,-4.442408643,1.79597755,3.680985391,6.042365709,0
168.1708522,1.841267744,0.9002379066,2.148089714,2.969003976,0
552.2881125,-0.07679616094,0.02185630739,0.1357670119,0.1575056508,0
166.2758354,0.2418561883,1.364823164,-1.130423345,1.788601024,0
167.5596552,-2.535465558,0.3837907702,-0.948551403,2.734159965,0
97.38064746,-2.599318323,-0.7095996729,-1.969767909,3.337659817,0
348.4492168,3.508892478,-2.120376251,-4.032816449,5.750819975,0
197.7032923,0.4427038068,2.36436755,-0.03348115683,2.405689414,0
153.5279226,-1.840130753,0.7109541804,-0.7985703215,2.128203842,0
74.15301137,1.164536366,-4.66466248,-2.579410892,5.456059159,0
98.90597213,1.802090814,0.2072767782,0.4534422183,1.86978737,0
465.4301922,4.357222897,-1.297425233,-2.761694332,5.319366428,0
4.648962208,-2.456008914,-2.84192924,-1.190909429,3.940406941E0,0
459.326571,0.7281169277,-1.388557889,-2.726268976,3.144962607,0
36.69251962,-0.7536531803,1.01173203,-0.2953130418,1.295686926,0
33.68194517,-5.338407903,-23.52747904,29.53372493,3.813504657E1,0
336.2624761,5.728469812,-1.836069569,-1.09311767,6.114035009,0
273.3216774,-3.824000684,-0.4765711722,-1.300015403,4.066957261,0
151.8285246,-4.579611804,0.4684064126,0.9933934075,4.709466988,0
153.0765805,-3.563050267,-3.910662267,1.106245254,5.404848299,0
128.2829573,0.4471710795,-0.1622269052,-2.320617805,2.368870309,0
128.4033152,1.91188486,2.921030958,4.639131197,5.80596795,0
6.311070708,0.8538917059,4.231071559,7.137206735,8.340912274E0,0
53.73568696,-5.826717653,1.324592127,-0.4638321358,5.993356586,0
422.1629727,-6.20471968,1.687965736,-0.3867523849,6.441843839,0
142.8442445,1.327527868,-2.04885574,2.296782215,3.351917157,0
82.00225046,-5.609281923,0.3638934262,-1.182975195,5.744205117,0
387.5294635,-1.47632255,1.732915037,0.6269823164,2.361277116,0
31.40074658,1.57971097,-1.863671935,-1.564457631,2.901083851E0,0
146.3275363,1.953394536,-2.869872791,-5.989823395,6.923142665,0
555.1392516,-0.2708570623,1.149994414,0.323007794,1.224820287,0
52.45909175,-0.3821100611,-1.415669089,3.321499157,3.630769026,0
140.6458537,1.615000963,-0.1940623632,1.341350101,2.108342573,0
29.50122912,-0.6027235343,-0.4225437766,-0.555726977,0.9223076357,0
55.82791992,-3.648353249,-2.842337376,-5.927481551,7.518271126E0,0
126.2408366,2.753399472,-3.280902231,-4.319270375,6.082896076,0
368.1147782,3.731874293,-2.568197687,-4.263218381,6.220735974,0
181.210519,1.806182111,-0.5313342936,1.273849113,2.273169926,0
553.3623091,-0.2824824965,-0.2808740737,0.03587076768,0.3999666462,0
144.3098369,3.61918266,-2.403247148,-4.774718188,6.455386414,0
148.1218541,-0.9866436741,0.403730945,2.497989291,2.715955617,0
313.1238255,3.261998475,-1.913297985,-3.511557055,5.160656565,0
55.90938025,2.194281694,-1.898239505,-0.3390578163,2.921154836E0,0
55.18854046,-3.083437081,6.725173913,6.824039805,1.006494251E1,0
82.71823517,2.226588876,1.046845729,3.186519692,4.025852922,0
77.81379188,0.2191529118,-0.0403159672,-0.948489788,0.9743132216,0
189.421773,-0.674300909,0.44846156,-1.980848383,2.139990608,0
77.58311187,-1.879971049,1.528717695,3.420269154,4.191599936,0
13.21929921,-0.7456828406,7.978623406,9.0605191,1.209576292E1,0
28.71759537,-3.48190787,6.448391867,5.546696835,9.190826180E0,0
57.53999983,4.464031062,-2.120982461,-2.966401843,5.764172084,0
69.51936629,0.4372765674,4.630332307,7.208305369,8.578511197,0
14.32753133,1.663627432,-0.6281656466,-0.4708979112,1.839563305,0
376.185817,2.999100643,0.7886345865,-3.400602629,4.602243737,0
107.9308938,-6.288294518,1.248274853,1.920966462,6.692604142,0
450.552636,-7.781950554,1.135941655,-0.171937961,7.866300307,0
462.4687296,2.806913774,0.3636857039,-1.586487601,3.244684135,0
425.8572297,1.836354913,-1.041159897,-2.739435736,3.458427598,0
145.3436064,1.298071935,-2.523277037,0.9891261095,3.005043796,0
514.2395936,0.9622482133,-1.274690673,-0.5008438414,1.67379882,0
75.99955858,0.1478100103,-1.391732343,-2.705349977,3.045929285,0
259.980743,1.763313834,0.2839716361,2.746774576,3.276383088,0
132.7356463,2.853586249,3.913373036,5.068032652,7.010163904,0
46.61718425,-1.61356401,0.764961403,1.227755219,2.167057369E0,0
275.0181587,1.786429632,0.5732521056,-1.027442914,2.139062352,0
414.8347016,4.305603093,-2.671689018,-3.770781666,6.316243708,0
536.1350145,2.390775622,-0.6660314843,3.767984943,4.51188614,0
45.52727538,3.3019104,-9.622291514,-16.1526783,1.908926721E1,0
33.08808533,-1.399118838,1.904775669,2.96312331,3.790224745,0
156.4365707,0.716630438,1.103173127,-0.6041436768,1.447597912,0
15.73227921,-7.316532068,-6.882077513,2.210495585,1.028498533E1,0
48.32020108,-1.932025594,-1.839084393,-2.9790827,3.998735805E0,0
197.9843623,0.3329147315,-1.050831045,0.9704408933,1.46861623,0
514.6210796,2.30781825,2.190437004,-2.649943516,4.140801852,0
171.8123103,0.8923726706,-0.1225424373,2.449218543,2.609600947,0
543.3030135,-0.06731197715,0.0182063292,0.0261271137,0.07446474844,0
43.28438512,6.267188408,2.037583916,5.019336455,8.283908329E0,0
108.3725778,-4.861926486,-1.009662554,4.508963991,6.707347009,0
125.3442419,1.365612538,-1.77470421,1.796875682,2.871103421,0
152.2400944,-5.774499094,0.517486479,3.231421046,6.637372523,0
178.2113582,-0.2642644729,-0.2455286783,0.7115141974,0.7977295887,0
47.68947312,-3.47059,-1.550511437,-1.49222873,4.083604688E0,0
439.881398,-5.096038476,0.4668118769,-0.6213584644,5.154959536,0
524.1482142,-5.08217005,-0.3031360316,-0.8716420984,5.165278677,0
410.2972023,-0.1813239115,1.738244482,-2.7045875,3.220118908,0
183.0959012,6.053020102,-3.963800301,17.33371061,18.78319166,0
43.62300588,0.4371237358,-1.130407411,0.2505356491,1.237605021,0
18.97445442,1.437383602,14.23241877,-10.28066227,1.761589715E1,0
144.3105333,-0.1632222841,-3.212754394,0.7921787301,3.313001578,0
551.5050535,-0.1272704959,-0.2978356768,-0.1763404758,0.3687815518,0
246.3085749,-3.968445622,-0.02500547156,-1.860775225,4.38311195,0
430.5754466,2.592999237,-1.080480229,3.584875876,4.554384439,0
554.6172112,-0.356326983,-1.631445819,-1.087872718,1.993000609,0
8.211402375,5.374139653,-5.99602963,0.5463591528,8.070455790E0,0
53.88566538,4.394303015,-1.540690454,-4.449879338,6.440889084E0,0
225.4590276,0.6510950643,-4.165412589,-0.6533596909,4.266317582,0
30.87012358,-13.3516632,-4.180590207,9.912325104,1.714638252E1,0
137.7109377,1.191598304,1.79890759,1.5960975,2.683934102,0
46.59177375,0.4635156552,-0.8743666086,-0.3222061408,1.040759591,0
21.52751725,3.356472231,-4.023060955,-2.584075216,5.841949161E0,0
349.7140726,-4.974547952,-0.2354283442,4.459330485,6.68484721,0
77.68340788,4.401148643,-1.718136492,2.699693381,5.441548193,0
42.45368575,-4.929058369,8.506805905,7.438614914,1.232859907E1,0
17.24485338,-0.08468902498,0.3601642182,-0.2481073004,0.4454747216,0
172.1761147,2.251637617,-2.312176472,-4.4796595,5.521175711,0
130.9107548,-1.810863392,-4.836160145,-1.411001549,5.353372446,0
89.67132183,0.4737960836,-1.082966319,-1.732750438,2.097551634,0
51.52291479,-2.823988521,0.6357841301,-0.3889204594,2.920683439E0,0
218.8337642,0.3362499833,0.8792762232,-0.1299327332,0.950301659,0
427.7746312,-2.227267592,-1.202563806,-3.259884707,4.127193833,0
30.50819213,4.690714457,-1.280768269,-3.706801725,6.114208739E0,0
18.53392429,5.445982638,-5.23001105,-0.4550208203,7.564310043E0,0
355.0445452,1.617955561,-0.6056949431,-0.264550219,1.747750949,0
366.6089892,-2.603002653,1.958038394,-7.307997472,8.001022698,0
542.1786212,-0.0475904882,-0.01149372563,0.1559820789,0.1634850734,0
365.3943192,-4.968341133,1.375153732,1.613629645,5.401783227,0
233.188514,0.8276815617,0.9038095321,-0.3199634412,1.266611638,0
4.567081667,-0.1934873261,-0.6584651873,0.8261764884,1.074049039,0
58.05140362,-2.872971523,-1.605359489,-2.690726091,4.251017685E0,0
162.9208377,1.685169305,-1.345053289,0.8446729857,2.315693501,0
53.61523396,-1.091431918,2.498352696,1.478218802,3.101309506,0
266.3751496,-1.453718968,0.6350451882,4.479822637,4.752409083,0
59.43714108,-4.50141582,-0.200472081,-1.883912072,4.883856891,0
223.1702985,0.360037626,1.461952871,0.4329816413,1.566654522,0
49.28973779,1.260295267,0.06961636484,2.170808632,2.511095521,0
556.7053706,1.226128963,1.538612353,-1.789170076,2.659294975,0
341.6732217,-5.223058126,-0.7676565309,-0.1481935877,5.281249291,0
352.956525,1.979565504,-2.168220654,-3.641675729,4.677783931,0
33.16263883,-2.197812535,-1.976916715,-2.654675083,3.973144779E0,0
302.3727092,-1.595031552,-1.489261707,5.852961711,6.246533989,0
0.9925345,1.445253954,4.121928601,13.77701539,1.445286157E1,0
19.44502042,8.858734612,-4.965222228,5.840390782,1.171498080E1,0
68.63676679,1.541292278,0.4891862476,0.4758898254,1.685632284,0
16.57155942,2.925884732,-6.278592233,-4.329043411,8.168362060E0,0
167.4994762,-1.18199871,0.9562372756,-0.5103096065,1.603722723,0
291.8123399,0.7374338812,-0.5928997734,3.641638892,3.762561985,0
59.77842608,1.080605798,-0.1447966477,4.533401844,4.662660961,0
461.434729,4.355122578,-0.526621584,-2.061563932,4.847109325,0
474.1338956,7.362744952,-0.2589639719,-6.080438865,9.552424424,0
163.5477201,0.5563951676,-1.447171256,2.234547083,2.719757506,0
17.42258604,3.689974315,-3.686112229,9.029915943,1.042797755E1,0
144.3901429,2.170554278,-1.056740972,0.3408763003,2.438073832,0
492.2541712,-1.813054343,3.883705434,1.574828838,4.566225993,0
175.874402,-1.328848608,-1.664343862,0.9879994972,2.347769605,0
35.14367542,2.149727958,-4.323957503,10.38046605,1.144866867E1,0
357.4538015,2.874717502,-0.5224360009,-3.213123938,4.342937432,0
89.66871137,1.795914693,-3.405602583,-1.193705567,4.030926881,0
522.501791,5.098517695,5.208956981,3.688639396,8.169098855,0
473.7724956,4.244116697,3.579080701,5.361512007,7.718040956,0
0.3939999583,8.884251276,4.56616584,2.123160841,1.021213020E1,0
327.3683795,-5.682058123,-0.2545269585,-1.053038077,5.784415068,0
40.1947925,1.025349026,2.847199336,2.376187404,3.847616309,0
14.61703762,-1.673548841,-0.4894151661,0.3711525983,1.782707822,0
29.74194313,-0.2343727756,-0.7951280656,0.5189561766,0.977995272,0
222.3873135,0.5720357385,0.4206469399,2.668324238,2.761181445,0
560.3596525,0.202799419,-1.133509651,3.286687174,3.482568637,0
21.55916796,2.405008914,-5.239292336,-4.586779321,7.367007303E0,0
20.41427279,0.5687035565,-0.6706756353,-0.6000915563,1.064584153,0
57.97162483,1.09873626,1.164758049,-1.546986151,2.22644309,0
374.6499095,2.008252528,-0.4730434008,-2.649017901,3.35769923,0
335.6802431,-0.1058018589,-0.7654480375,-1.995615964,2.139997152,0
34.47596175,1.204145113,0.2837829173,0.1793352735,1.250063733,0
397.4175475,0.73695324,-1.398404016,-3.075854119,3.4582528,0
160.037279,3.331229509,-1.481074582,-0.0712530005,3.646333631,0
70.8633235,2.83007401,-0.1537928814,-2.751946439,3.95046584,0
60.43413712,0.938533076,-0.784651317,1.719153323,2.109978713E0,0
165.8846714,-0.0777372703,-0.8346812636,-0.6857240295,1.083029704,0
49.13840396,0.1801012588,-3.098936003,-2.731051413,4.134547452,0
96.31659571,-8.015505888,1.106819305,1.227369596,8.184119974,0
557.3177646,-3.788382955,2.201692163,-4.902551186,6.575279608,0
14.71900433,2.63156484,-0.1495858097,0.8611966324,2.772935098,0
110.6607376,-4.426615899,-3.971247607,5.034695921,7.791912403,0
95.95521933,2.299631563,2.219697933,-1.089061603,3.376598794,0
70.6025555,-1.29094988,-0.6404999095,2.831170656,3.176841042,0
128.2328093,2.25983746,-3.324545556,2.348836468,4.655802966,0
234.8649097,1.857203161,-0.7657292886,-2.2436224,3.011542196,0
59.41706608,-4.922779629,-0.3076655772,-1.306247512,5.102420988,0
338.9025988,5.463121412,-1.456790949,0.4895270672,5.675171555,0
431.1677346,2.755852963,3.934463651,4.98190258,6.920555115,0
31.53223725,-0.3788381785,0.2273034918,-1.89589828,1.946693486,0
466.6448946,4.926327134,3.02803442,7.564265147,9.521333872,0
480.6993437,-0.6989130092,-1.621015117,-3.010840682,3.490176359,0
114.9276159,2.240236716,-0.4619350067,-0.421194824,2.325822344,0
434.5407649,-2.2853895,0.9903845034,-3.120007614,3.992281822,0
415.0455156,-1.550172299,3.744384411,0.48359514,4.081337162,0
258.3746147,0.698822962,1.756859385,2.524018464,3.15366099,0
3.217257333,-2.04324519,-0.4587123138,-0.7438061768,2.222277103E0,0
43.48489058,-2.744867215,8.528896685,2.063939071,9.194358008E0,0
128.4334043,1.536515542,4.604808041,0.627926057,4.894836896,0
484.7249573,-5.180364096,0.1728717613,-1.598685477,5.424191375,0
339.1736378,-3.291321092,-0.4658456976,0.3691468571,3.344559186,0
308.4258542,0.8096276987,1.17246731,-1.91407318,2.386179529,0
56.50870992,-0.4848692483,0.7081902015,1.246246454,1.513195881E0,0
251.1169212,2.286980528,1.864588194,-3.814207183,4.822358914,0
106.5154858,-1.692944933,-0.3512624171,-2.199145408,2.797443182,0
55.22127458,-6.353834789,0.1894199663,0.1281557643,6.357949382,0
10.91468275,5.790711669,-1.763483403,1.96269614,6.363520369,0
83.30719083,2.721596466,-0.6769958907,0.1923231089,2.811120584,0
353.187412,-4.064195532,2.660660293,-1.461441532,5.072731992,0
536.2454465,-2.376401412,0.6047567573,5.583926641,6.098626988,0
47.34399442,-0.6110961623,-0.543286441,0.03451669872,0.8184070375,0
62.78865913,-5.586357914,-6.214218482,0.6378867888,8.380382189E0,0
541.1746999,-0.1269167393,-0.06915531188,0.03874701306,0.1496383871,0
59.33197979,4.947231515,1.32946739,-0.2901096046,5.130959636E0,0
319.9098051,2.342241978,0.7551793036,2.678224744,3.637207863,0
124.4114759,-0.4284269892,2.247034982,-0.07231017709,2.288655644,0
176.5327077,3.132314833,3.355904759,6.886739498,8.276513389,0
375.0313765,-3.189781854,-0.1861079572,-2.431102699,4.014922761,0
11.19574033,-2.032842994,-0.3818204047,-0.8494039679,2.236006386,0
490.166068,2.59550126,2.955491231,3.375294126,5.183065275,0
432.292077,-6.428660438,1.638746067,0.1373123579,6.635662618,0
42.44324012,-1.109668214,1.694071252,1.200243924,2.354108415,0
352.916371,1.598864402,-0.3982016717,-2.255199741,2.793001579,0
117.6012908,-0.1395706987,0.8146621513,-0.2089163375,0.8525259156,0
103.2488082,1.178147296,0.3131347704,-1.007592786,1.581558616,0
282.7978833,2.346695802,-1.476146548,-3.210898488,4.242152628,0
63.16063813,0.4099757713,1.247916273,-0.9401118243,1.61529731,0
100.3502401,0.8638606238,-0.3734172249,-0.4446865976,1.04088509,0
534.4484273,1.871444639,-1.60587039,-2.074998056,3.222846828,0
257.7622773,2.780654513,0.1383839332,-3.644414565,4.586169116,0
139.190297,-6.019826043,1.563902438,-1.441478407,6.384509098,0
37.14727658,-0.9837395082,-2.673510426,-2.199144824,3.598838614E0,0
162.5494217,-4.837157096,-0.05795175433,0.2263930804,4.842798881,0
145.8952404,1.934183655,2.390172189,-2.901064471,4.227311743,0
244.0800711,-2.749412255,1.198875968,6.634719241,7.281213549,0
59.32286258,-1.438327342,3.766230778,0.3480888408,4.046535019E0,0
546.2445038,-0.4072229022,0.03822968066,0.624158769,0.7462346611,0
18.12747892,-0.4869374084,0.7905014563,-0.5745281142,1.091825602,0
16.84359571,-0.5279073867,0.8879125607,2.230459295,2.458052804E0,0
326.8062255,-4.310032943,1.451268546,0.2082922934,4.552576199,0
48.18902392,4.808294654,-22.24689905,3.355636664,2.300661888E1,0
112.8296008,4.135697624,-1.912599097,-1.439321369,4.7784596,0
91.57856846,-1.868085414,-0.4527557552,-0.632207973,2.023466779,0
13.55791125,3.012262725,-4.165935915,2.790486606,5.849407173E0,0
32.87098617,-0.3492378918,9.328639081,-7.159517371,1.176452988E1,0
41.53260975,0.03990812391,2.155552661,-8.412404362,8.684270095E0,0
245.4553189,4.83570991,-4.364174944,-4.014423448,7.651516771,0
55.76921725,5.8243086,-0.4892634308,-7.804911985,9.750825630E0,0
200.8251736,0.633425948,0.8553130178,-2.630451238,2.837615637,0
179.0924546,1.070335164,-1.145464576,1.760954483,2.35768258,0
430.0534305,1.066701704,-0.3299183258,0.8223904163,1.386731634,0
220.5804229,-1.460097549,4.477645134,1.846752432,5.058822526,0
166.3338508,0.9675504684,0.8442359063,-2.205090272,2.551727118,0
40.16100683,5.210761431,-5.373518094,-5.775762092,9.454425374E0,0
279.7662983,2.328731402,-4.492977118,-4.105250003,6.516357181,0
366.2977922,-4.189058145,2.213682171,0.2525827593,4.744722852,0
161.4715451,-0.3139436596,0.8665912735,0.9184791729,1.301209072,0
133.9096577,2.27732502,-1.664269018,1.639466883,3.262491727,0
341.6029517,-2.600115298,-0.3206944893,3.748426006,4.573198229,0
394.5163707,2.641181463,-0.4835645883,0.8892504767,2.828505019,0
167.6689392,0.3913465422,-1.843424782,2.17606294,2.878648461,0
68.36596979,0.4887743112,-2.269212593,-7.5329153,7.882451334,0
106.0470846,0.9438702683,0.04056155026,-0.534449617,1.085436648,0
105.9734172,-3.185119869,0.691496547,1.161837949,3.460205698,0
399.736484,-0.8297269177,0.3794359101,0.9948704141,1.349883517,0
15.6204085,-6.628831095,-7.930889661,0.8603119487,1.037210437E1,0
523.2246103,-0.4178923166,-1.400966558,-1.268823577,1.935782672,0
9.65225475,0.5064799726,0.844111653,-0.07601731181,0.9873323032,0
538.5243471,-3.483350671,1.877854649,1.762035779,4.331840263,0
4.03835225,-2.02337372,4.960149184,4.866153438,7.237165911E0,0
23.71012538,4.67795437,1.008409642,-4.162345432,6.342339205E0,0
348.3588693,-1.970598798,0.5996173471,-0.2582295616,2.075929453,0
53.05605658,-7.899632201,-5.364081273,0.3748056462,9.556047095E0,0
173.8383407,1.247277465,0.461263454,0.4195084139,1.394436215,0
23.05092688,3.108221089,6.270181013,2.203331138,7.336952799E0,0
253.3554622,0.5246379161,-2.111831568,4.586815574,5.076805553,0
30.53973558,-0.8273953405,1.883629652,2.756914233,3.439944738E0,0
33.1620725,-1.327649198,-0.7245197207,-0.1705778986,1.522063743,0
48.8010955,-2.213013542,0.6565043235,0.03456113756,2.308597266E0,0
441.0659758,1.705899439,-0.4248508687,-2.941726009,3.427002052,0
271.745658,-4.77733891,1.880423477,0.9908624402,5.228840014,0
228.6612411,3.07984192,-0.6771971811,1.54547523,3.51176821,0
387.268458,1.976643065,-1.10837101,-1.420066488,2.674358415,0
160.027249,2.895369575,-1.407712491,-0.4539137962,3.251285464,0
171.8624593,1.423560345,-0.3473602778,2.422794975,2.831451697,0
352.856139,0.2563700008,-1.650312591,-2.907957754,3.353427429,0
179.7860465,-0.9639884908,-2.037531291,1.645139705,2.790572024,0
119.756062,-5.700135375,0.5638832581,3.841141212,6.896656685,0
404.2840132,2.719371015,-0.4893906078,4.869671708,5.598944939,0
31.04038846,-0.189550944,-0.3358570504,-1.678018745,1.721765497,0
406.4824917,-5.315799644,-0.4077421349,1.863789903,5.647804202,0
33.49302471,2.104375491,-0.7793285966,0.5941379213,2.321367946E0,0
45.95777738,2.847143787,-0.6667375356,-2.247719983,3.688226106E0,0
133.2777161,-3.097641429,0.7108290499,4.325060288,5.3671973,0
137.8050081,2.010292622,-0.6282659995,-3.593542619,4.16527828,0
102.2358121,-0.7356181014,0.1621093762,-4.948898556,5.005897558,0
372.0097551,-1.378950037,-1.139208933,-3.234002007,3.695682505,0
13.42940158,-0.6380382317,-1.730727886,0.00644012332,1.844601116E0,0
495.7577707,-0.8562112963,-0.1816140796,7.388278574,7.439942321,0
2.8167805,2.174505242,1.732108414,2.524209668,3.755037556E0,0
123.8215942,2.453485256,-2.815167704,3.555602376,5.156264865,0
41.48965637,1.825922311,0.722863643,-2.661514571,3.307594888,0
25.89412608,-0.9397902274,-0.4526803261,-2.507173805,2.715519405E0,0
104.6629907,-0.2415665319,1.029638543,0.3797860122,1.123720309,0
419.4525155,3.227415703,1.378631071,6.188021786,7.113961581,0
80.91291725,-0.09096827678,1.027202008,-0.8787534821,1.354853083,0
54.61787646,3.944367665,2.002539799,1.567956605,4.693260043E0,0
226.6234681,1.586512159,-2.522819785,0.1916717291,2.986365441,0
248.6776145,1.475403367,2.10368128,3.104017818,4.029542982,0
62.13762367,2.49164477,-1.704437635,-3.865249282,4.904442203,0
15.75056742,3.518096873,1.104169493,-4.816726047,6.066056848E0,0
309.0783492,3.901695562,-0.4042115861,-1.408913509,4.167931446,0
34.12375971,-1.863329873,-2.864172633,-2.952713512,4.515971675E0,0
49.18859196,1.123497464,-0.7924121071,-3.122854623,3.412093858,0
141.7099157,0.2811358827,0.2335877869,3.059047467,3.080807044,0
497.3539675,-2.610834414,2.232476438,-0.115689062,3.437119629,0
148.8440007,-0.1317983239,-1.494547151,1.351343578,2.019200696,0
44.17976708,2.06855077,0.463350179,-0.988749695,2.339064265,0
13.04235,-0.06030555099,0.4791407311,-0.2276549095,0.533890773,0
6.849372833,-0.06624953806,-2.046198473,1.170357635,2.358188751,0
58.22207487,-0.4266713262,5.771532801,-5.187712877,7.772065632E0,0
289.7745498,-4.345334339,0.4794845474,4.903492588,6.569328391,0
420.8679757,3.131265258,-1.259962999,-2.471140339,4.183164287,0
25.36350208,-1.894617447,-1.766060271,-2.168400164,3.377943668E0,0
222.3070065,-0.4719284829,-0.5299547893,-2.072787078,2.190893617,0
469.6364762,1.733074958,0.04762264788,2.030649118,2.67008475,0
361.4893088,3.621707488,0.7884213093,-4.06656307,5.502300291,0
27.41591475,-2.113343658,-1.106121878,-3.264191766,4.042854797E0,0
52.99065975,-0.7663613726,0.1658600727,-0.4281664592,0.8933900794,0
38.6492385,3.94840546,-12.61020351,-15.53761086,2.039667839E1,0
58.86233421,7.541924105,2.784456958,4.132957619,9.039643712E0,0
15.2900095,-0.7728144329,1.56601416,2.250778077,2.848797018E0,0
50.5133495,-0.8551751697,-0.2832201228,-0.84795035,1.237157227,0
307.813512,-0.4047676563,-1.817529656,-1.273714773,2.256014235,0
34.32551575,2.125740048,0.4680669817,0.127648226,2.180401688,0
6.571251708,-2.418079196,-2.984389048,-1.383966948,4.082774730E0,0
25.60997108,0.5185632437,-1.644585828,-1.433915033,2.242695411,0
62.50833046,-0.8201222813,1.991769227,0.03378634494,2.154271740E0,0
55.83905825,2.499857184,0.08895018339,0.3169138259,2.521434602,0
24.6628265,1.202078926,2.880662951,1.688982275,3.549066624E0,0
157.3897403,-5.261011233,0.2189447509,1.939257138,5.611318405,0
26.86341137,-0.1243328547,1.603021334,0.6477580583,1.73341471,0
149.8309023,2.510665762,1.804688147,-3.166787678,4.425933357,0
544.0258365,-0.1157889032,0.1430470146,-0.04499447063,0.1894571743,0
199.7912391,0.8677232945,0.01946698889,-2.584564628,2.726407342,0
27.83656071,2.196137308,-5.969327735,-8.252906352,1.041951803E1,0
426.5097482,3.733569401,-0.02841059759,4.179392112,5.604254283,0
159.477706,-4.589843847,-0.3314958315,-0.3880517824,4.61813168,0
130.1056005,2.359811692,1.489958987,2.925088341,4.042874078,0
531.8984691,-1.971975818,1.51593612,0.4167392457,2.521987816,0
47.83964712,-2.657915317,-2.30255751,-2.644651201,4.400052829E0,0
123.17914,2.669784288,0.554668631,-1.786455506,3.259881701,0
379.7194076,5.904433581,-2.25270298,-1.797724698,6.570298374,0
118.0726878,1.651630553,0.946450206,-1.290099256,2.299566822,0
36.73263862,-0.4445080382,0.9310825539,-0.3951109797,1.104814376,0
100.6330427,0.5535459656,-3.374036682,0.007921807766,3.419151857,0
501.8514314,0.67960141,-0.4977629435,-2.538424834,2.674551675,0
496.1894467,1.313557701,0.195537031,0.8201176035,1.560852795,0
556.273685,-3.133657354,0.3980715711,0.3752999552,3.181056341,0
438.9678697,-0.2894289887,-1.192407047,-2.462116331,2.750930848,0
363.1757912,0.266344766,-1.798274629,1.946422316,2.663323301,0
121.3122874,-0.3951755914,-0.7501315485,3.047020329,3.162782632,0
96.47720671,4.239847645,-0.4042538323,-1.876460381,4.654119978,0
1.838932625,0.3788133278,-0.0002099150419,1.104132655,1.167308229,0
369.3495262,-4.380436928,2.413343389,0.1545658833,5.003633141,0
212.0579437,1.984976517,-2.766506006,-3.443077973,4.842362355,0
23.21111587,-0.8475819755,5.671412097,1.665545465,5.971377737E0,0
114.8932685,6.597723908,-6.930576659,-5.062180173,10.82536474,0
170.1483888,4.979033936,-1.704225381,-2.097883328,5.665357671,0
30.2894425,4.306364985,-2.176711396,-5.602143057,7.393703992E0,0
37.64663288,2.597755947,7.909548494,-7.327737672,1.109076340E1,0
201.3270837,-0.2731427389,-1.000853066,-2.419902942,2.632915507,0
126.9635976,-0.04286067545,-0.4277111073,4.662475621,4.682248685,0
222.1664705,0.9602671766,-0.3734511387,-0.2657875264,1.064059121,0
19.33637471,9.042040145,-3.504348022,-5.13329401,10.97222186,0
400.419115,-5.218294984,-0.1940956923,-0.5349554012,5.249233559,0
534.1673303,-1.080744962,0.00122908473,5.29438831,5.403569076,0
293.8300528,1.47281422,-0.5179729673,1.321150895,2.045218181,0
437.9037578,-0.5609152114,-1.529567295,-3.726296634,4.066877007,0
32.7007835,-5.687982522,-35.71013882,19.20810108,4.094530873E1,0
222.5278485,-0.829854387,0.09472810954,2.177991936,2.332655267,0
54.70798146,0.03305167884,-0.4203668582,-0.2911708742,5.124267626E-1,0
44.89653813,-1.072508574,-0.1407226002,-0.03187609613,1.082170771E0,0
167.9508192,1.69390563,-0.1334246904,1.877258818,2.532038527,0
299.923347,-2.55898189,0.2485163131,-0.2615800162,2.584293477,0
117.7015878,-0.1320503023,1.127458368,-0.8859163944,1.439947052,0
136.5100623,-5.331542103,-0.420449304,3.674272202,6.488635837,0
60.32227362,0.4586433166,-0.8095452529,0.2700402429,0.9688338047,0
135.9456977,-2.118919563,0.3118355191,1.27326366,2.491638388,0
100.0407847,4.644622318,0.8869721822,1.33964286,4.914659614,0
23.90355475,-2.773947172,0.8589583182,1.244784504,3.15944311,0
43.14422283,0.2044636828,0.04679292798,0.4031760442,4.544732097E-1,0
414.3528437,-1.118905061,2.326303053,-4.239301515,4.9633972,0
8.743836458,0.5313031572,0.5629880494,0.4334649137,8.872037083E-1,0
112.8095248,4.210529705,-3.172952397,-2.082613909,5.668638991,0
93.43983362,2.262379537,-0.5660777181,-1.855237327,2.980052129,0
9.72246375,0.07829597175,1.331963566,-0.7462538213,1.528774662,0
441.4976438,0.597496562,-0.3548195708,-3.55816638,3.625389228,0
146.5170875,0.8129707711,1.290077621,2.08352432,2.581916989,0
5.02249125,0.8068619657,-2.683233761,0.1198123723,2.804482956,0
515.8659265,1.398198486,-3.70397752,3.011179821,4.974094127,0
40.8147085,0.9176732804,0.7054066345,-2.156910385,2.447853177,0
81.34978046,1.456384714,1.729149576,8.124273455,8.432961156,0
81.61076846,1.35013145,0.9792745744,-1.428394092,2.19593791,0
143.8179602,-0.6598734891,1.176771007,2.259117376,2.631317986,0
190.4757843,-0.0568852222,0.2031479131,-2.256199615,2.266040976,0
533.7356443,-6.838008218,2.290249414,-0.3703526992,7.220855898,0
89.81915538,-0.4535291956,1.611077482,1.273986669,2.103402343,0
165.8445524,-0.3707839313,-0.0008718198538,0.1075395052,0.386065058,0
178.2213882,-0.2804508814,-0.2503818673,0.7946483016,0.8790959559,0
221.3332945,-1.587690373,0.7002707326,0.2501479787,1.753201024,0
13.84571546,0.9937664598,-6.164960952,1.074555684,6.336322691,0
4.428700208,6.00956301,3.591652799,2.618469123,7.474703871E0,0
17.41412062,-0.8395987719,-1.220798641,-1.385824023,2.028739422E0,0
29.60499287,-0.5954921365,0.4092115402,0.6550102137,0.9752452765,0
78.05449987,1.406668909,0.3656018364,1.745140688,2.271100645,0
442.0798937,1.927434068,-1.251602065,-2.468367004,3.372587357,0
35.95608633,4.303590774,-5.1287899,2.376804285,7.104546291E0,0
117.4508448,-0.2828125718,-3.060884078,0.842052556,3.187169088,0
345.4677751,-0.6042068267,-0.9651061861,-0.698809952,1.335975744,0
280.9106718,1.339106525,-0.609953324,1.509493804,2.108037212,0
11.75572179,5.702598222,-0.8154602963,-2.972930552,6.482508623E0,0
163.7382871,-0.2482401053,2.51804261,-0.05238067344,2.530791471,0
133.0568733,5.353877882,-2.661766001,-3.964854847,7.174195465,0
181.300864,-5.899341241,-0.1288303868,1.261425095,6.034071397,0
9.583075625,3.679440556,-4.923949072,-1.594031532,6.350156990E0,0
0.8158777916,-0.4179907691,-1.236609804,-1.05625273,1.679163459,0
151.3868396,0.682743119,-2.614007698,-2.420196472,3.627192492,0
45.00286008,-2.319327909,0.2457046795,-2.738820024,3.597330658,0
93.15900475,-2.024637304,1.13287172,1.956267565,3.034721953,0
5.019403208,1.03155643,-1.957760067,-1.231676801,2.532579888E0,0
497.2736555,1.198311419,2.172919477,4.585629759,5.213974453,0
148.8069964,3.242314993,-0.455546485,-5.745119174,6.612603378,0
50.77339512,-0.9814367285,-0.5916405755,0.1095177279,1.151195359E0,0
30.65836913,-1.508460601,9.332021695,-8.176356359,1.249859535E1,0
142.8963338,-0.2824608253,0.3581939989,1.407247929,1.479335592,0
26.93361937,-0.1159615423,1.70419673,-0.09708833814,1.71089442,0
370.6846605,0.3098503894,0.5099760228,1.202609707,1.34251738,0
8.133110125,-2.728799651,-2.285047438,-1.077882458,3.718819695E0,0
153.1736554,1.418996447,-2.270225185,1.41204937,3.02677332,0
287.5259548,1.284219881,-0.2210601273,-3.627405599,3.854368906,0
29.62850971,0.0980472815,-2.293562738,0.8934802794,2.463402183E0,0
54.05689596,2.036584042,-0.06828422293,4.644805335,5.072135044,0
5.920476458,6.985327063,2.164024107,1.126719865,7.399141313E0,0
12.911961,-0.2009682173,-0.04095419079,-0.3252496165,0.3845162976,0
150.2882932,-0.3955290921,1.205872453,-0.306441755,1.305556657,0
59.1231255,-3.124840922,6.086832211,7.153815166,9.899051904E0,0
217.1272596,-1.42435659,-0.3803384644,1.623112075,2.192701952,0
1.869022625,0.8379662293,0.9226713341,0.8889773387,1.530944317,0
206.135387,4.990216151,-1.490266697,-1.147582072,5.332925715,0
128.3230763,-0.1034457234,-1.0238919,-3.194259651,3.355942544,0
47.22363875,-0.4089388407,-0.9994493687,3.197434105,3.374865163,0
19.63195175,-1.989853826,-0.7881789422,1.102352178,2.407472662,0
146.0155984,0.2426552469,0.9880461287,0.5394345877,1.151566931,0
134.6217675,3.454340003,2.528718456,-0.3478830189,4.295102383,0
96.46716871,4.433116833,-0.7243524903,-1.233094751,4.658082658,0
16.77336171,5.20329863,0.3954495335,6.868620147,8.626044266E0,0
15.38186408,-2.303040198,3.428758142,0.7388039569,4.195975195E0,0
317.8418854,-0.1266939604,1.714790861,4.808573567,5.106754234,0
67.226479,-2.30579102,1.217111679,-0.03926478401,2.607599431,0
396.8353045,-4.466441284,1.461352362,0.005384116173,4.699433738,0
53.19621958,2.003934944,3.786073304,5.291999722,6.808477611E0,0
56.72165988,-0.1325683656,-1.273241149,0.06855977297,1.281958594,0
109.1562847,1.297122054,-1.111811804,0.3501178247,1.743913301,0
211.0440809,2.386039377,-0.8810843284,-0.8139465252,2.67058092,0
231.0603951,-0.1714222366,1.437334631,0.4136144936,1.505454541,0
3.326099,-3.053880575,1.223168225,1.474637382,3.605118928,0
45.36816037,-0.842147354,-0.7052072445,0.09584229648,1.102594744,0
552.8503091,-0.06985785484,0.0520082058,0.03142761469,0.09258870514,0
400.409076,-4.898201442,-0.1947368395,-0.1412997204,4.904106995,0
103.9709443,-1.75847234,3.840762312,1.677418528,4.545042687,0
387.4792705,2.050814411,1.650643689,2.207854836,3.435853215,0
347.5156333,-1.740802639,0.859337364,-1.988046305,2.778701611,0
38.5279475,-0.5936390077,1.438515038,1.879042511,2.439781454,0
209.4580402,2.63008988,1.138455373,5.230477073,5.96417168,0
295.3659246,5.997361625,6.047707906,7.671293752,11.46262907,0
197.3720313,2.472830184,-1.027166413,0.9234817582,2.832450974,0
31.02575112,0.6473006599,0.09203605145,3.272463237,3.337137159,0
45.08538904,3.953361267,1.987110166,-5.216100524,6.839983684E0,0
16.84344471,-0.8397326732,-2.683903559,-0.6722760183,2.891443294E0,0
45.70611704,1.530766852,0.2022107506,3.016070724,3.388335721E0,0
68.91759379,-2.012942434,-3.310395879,-0.4719030476,3.902992519,0
555.3099186,0.0633031261,-2.659433547,-1.205874792,2.920741017,0
554.9886636,-1.246345126,-0.3594451569,0.6667603397,1.458473978,0
135.8353697,-0.6652013259,0.8327522671,0.1044315639,1.070922543,0
373.5255855,-0.5164623392,0.7669304529,-0.135255015,0.9344568403,0
382.0182501,-4.744236653,-0.0214424707,0.1854030754,4.747906433,0
474.2041676,1.949717222,1.330763133,4.777595018,5.328953173,0
30.67990058,-3.782153331,6.120439083,6.450639537,9.663084850E0,0
275.750959,1.489474692,-0.6820929086,1.463659235,2.196834984,0
156.9280328,-0.1588598592,-2.747296733,-0.6922144389,2.837611077,0
98.75588808,-6.508654441,0.2372786956,-0.4255919302,6.526868492,0
361.9912378,2.257624581,-1.642899783,-2.084993725,3.484707632,0
228.4604761,1.335116385,-2.350799524,-2.811011795,3.900074548,0
432.43262,2.102275171,0.6585355,-4.111288422,4.66432443,0
252.0805984,1.928046856,1.325770195,-2.309885241,3.287947858,0
43.67483712,-0.2169200063,2.256750423,3.705003414,4.343619119E0,0
21.99953971,-0.9664422749,-0.5542394453,-3.81647064,3.975756554E0,0
44.29555525,3.255114841,-0.907999793,4.662176828,5.758135899E0,0
117.360578,-1.514108719,6.366348415,-1.115553875,6.638326431,0
14.50067037,-2.968810896,-2.473311995,-0.9856262586,3.987802588E0,0
504.9936389,-4.726238923,0.1683581494,-3.016669772,5.609454103,0
170.5284897,-0.8192009063,0.6905327797,2.794138777,2.992513517,0
295.6068456,-0.2722726732,1.653957745,-0.2105401093,1.68938917,0
61.94658908,-4.178799205,0.1853950354,-1.294611552,4.378670253,0
274.0745536,5.601254865,-2.48524967,-3.181665918,6.904601364,0
480.1572417,-1.495632395,-0.2857515286,0.3641119659,1.565614167,0
537.3397208,-0.7456866413,-0.6098489513,3.033350708,3.182637402,0
35.67781871,-1.013914796,0.591876803,-2.618343993,2.869506339,0
528.0634969,4.319129457,-1.83193778,3.028867648,5.584345488,0
32.81706733,-0.3624864399,1.434004788,-2.203439019,2.653848085,0
15.94360971,0.4378167039,-0.1627780053,-1.237976006,1.323164668,0
369.1788692,3.290608901,-0.3203241413,-0.4231026243,3.333126209,0
309.8111531,-4.644955024,0.3492819652,1.24614866,4.821876351,0
14.46901504,2.894091666,-4.067875185,7.968138179,9.402903867E0,0
294.5327391,-4.527601406,0.5738735184,-1.366475295,4.764006721,0
152.1497496,2.044115256,-1.361083138,1.089507453,2.686630042,0
513.9584996,-4.106736365,-1.333050563,-0.3416048634,4.33116627,0
22.23997096,3.37656034,2.412479902,0.7782913005,4.222198048E0,0
17.14455537,0.00524860695,0.0295190835,-0.2946575689,0.2961790119,0
479.2938936,3.124270234,0.1774038651,-5.621496756,6.433798443,0
138.5233495,-5.312183726,-0.2815101045,1.664043607,5.573830371,0
204.6095788,4.55998621,-2.457368392,-4.311675426,6.739634903,0
114.0307148,2.649161158,-0.0451124382,-1.470460716,3.030238389,0
33.88420912,0.4687861527,-1.735076606,0.3419948727,1.82953868,0
170.5886688,-1.783762717,0.8294094139,2.231677416,2.974914031,0
420.1451875,-6.513822795,1.215943113,0.3036814307,6.633296878,0
397.849211,-4.495525335,1.82307384,0.4628923421,4.87315253,0
427.8649802,0.7585464227,-0.488867282,-1.769584973,1.986407529,0
158.362298,1.038814506,2.75566059,1.017736243,3.115860704,0
352.474674,9.170623925,-2.530551558,-8.127702262,12.51253685,0
47.20787592,4.100527791,-11.52279681,-2.063778273,1.240356220E1,0
122.355379,-0.495738272,0.2307498407,-1.215333248,1.332680317,0
114.6224665,0.5623770884,0.4213719946,2.525251642,2.621205486,0
271.544891,3.212241594,-0.07444009848,0.2666580306,3.224150103,0
454.3372693,3.960024462,-1.779149556,-1.682486018,4.655955979,0
159.99716,1.254388264,0.7932338601,-0.6272661987,1.611264335,0
292.4046035,-3.731449785,1.374861079,0.8648499727,4.069634623,0
51.98769912,-0.582110016,-0.1365269306,-1.569359937,1.679399382,0
470.0380312,-2.42834866,1.382832149,-1.983833971,3.427054011,0
63.47233546,-5.119999781,0.4904428142,3.582221825,6.267953822,0
539.9499153,-0.1214425761,-0.1283272339,0.01086281106,0.1770146291,0
282.0851595,-5.645821758,1.338971162,-0.2505660546,5.807833541,0
526.1861683,-4.440503036,-0.6727900616,-0.301128244,4.501265588,0
520.4538031,0.5004567558,5.08432241,2.616564685,5.739965338,0
533.9163493,2.198106943,0.3697779179,-2.996840109,3.734897653,0
176.7770883,-0.04018089652,0.8268307918,0.9769994228,1.280543453,0
150.3785612,-0.0595428548,-0.685328173,-0.4003006759,0.7959024359,0
515.6149485,0.3113677418,0.8914952959,-1.551730582,1.816475029,0
353.5287227,0.1261700499,2.173877981,3.136644112,3.818402892,0
232.716714,0.9930817509,-1.114401682,-1.944939608,2.451712167,0
333.491853,-4.162326429,0.5656336221,-1.388891473,4.424242559,0
283.2395713,1.508235483,0.696493139,0.1951139849,1.67270632,0
159.054356,-1.072980298,1.584571468,-0.3522634605,1.945827075,0
22.71909983,0.8743411732,1.665591658,3.48021247,3.956077211,0
21.67517258,-0.8002359009,2.05795737,2.403747524,3.263980421,0
3.948127333,4.541019596,0.5726634371,0.1232981899,4.578646616E0,0
210.0402582,-0.5482483882,-0.7617610757,1.218880754,1.538351886,0
101.4059895,-2.558587788,0.1320488405,-0.08512785852,2.563406935,0
44.6761165,-0.2616664088,0.492910924,-0.2896745718,0.6287621537,0
199.7812011,0.60814785,-0.6318767282,-2.802934744,2.936929551,0
46.44132975,0.4800565512,-0.9525082138,0.9461636925,1.42581623,0
300.08396,8.642481773,-2.345258264,-9.178789562,12.82352936,0
44.07530012,-0.4430499619,-0.6701669276,-1.283742163,1.514401176E0,0
499.7030887,-1.43634806,0.7953081599,-5.747500745,5.977405426,0
87.18138104,2.570909625,-0.176383599,-3.390056591,4.258306138,0
353.05691,4.02880409,0.5640469801,0.8714444625,4.160387824,0
176.185327,0.03794989139,1.001063785,-0.9332683893,1.369145274,0
184.7439687,2.098421271,-0.6275009644,0.2103418521,2.20031202,0
494.2117694,4.036713619,3.932698084,6.888243402,8.899947653,0
39.10955187,-0.2389876905,-0.8337854701,-2.788859911,2.920625435E0,0
30.87997337,-0.8831242758,1.132399265,-1.326680022,1.955074541E0,0
494.3021204,-5.856640779,2.111187351,0.4855640437,6.244447589,0
5.630256708,7.570300058,-3.31528649,-3.107921419,8.829481470E0,0
283.912142,3.863378173,-0.1311220568,-3.316503881,5.09333701,0
116.909241,3.222292957,-1.105702048,1.086429625,3.575762611,0
323.6742242,0.4413074917,3.67227187,3.596944529,5.159296748,0
55.19855246,-4.069305999,7.466950521,7.348741456,1.123915488E1,0
57.34349375,1.448186333,1.4489817,-0.9695385218,2.266450213,0
138.216579,-2.681516141,-0.3139340848,0.07650993973,2.700914141,0
312.8728655,-3.938469871,-0.3182512303,0.2293598114,3.957958399,0
19.90852771,5.252845012,2.315556455,-1.959085338,6.065657242,0
37.00279721,2.137784142,-0.7892057133,0.1982989633,2.287419764,0
434.7816959,-5.603093814,-0.3920021613,-0.5053456128,5.639476942,0
240.1550941,1.876244618,-1.22039299,-3.570127444,4.213723162,0
129.9278379,2.694972339,0.9418893778,0.7159257755,2.943226329,0
250.5547762,1.705316471,0.09935676545,-2.592308096,3.104518851,0
59.18180579,-1.192640424,-15.95239479,-16.29293897,2.283333421E1,0
180.13643,0.6802551287,0.904524208,2.041138439,2.333914568,0
31.59246425,-0.2296751225,1.36662206,-2.509975206,2.867120865,0
57.08028696,-1.894923549,-1.387205721,-3.533934934,4.243085090E0,0
369.1286772,4.672322332,-3.598116311,-3.974141979,7.111317841,0
208.2032615,0.750124678,1.974454599,-1.043483434,2.355847124,0
21.43731212,0.3850439016,0.2981179512,-1.075233377,1.180364322,0
32.0500145,-1.549597663,0.5098298424,-0.1590324251,1.639045667E0,0
501.5402237,-2.191293182,-0.3892310196,1.860153666,2.900592742,0
78.70642017,-1.304219989,-0.4968770903,0.1821901765,1.407504843,0
53.80652171,1.67131959,1.38042295,3.115397669,3.795336524E0,0
121.3621988,-6.276186104,1.866900183,0.4538892379,6.563676085,0
78.45884858,-6.681013986,1.669152612,-0.5419193619,6.907654806,0
37.66665688,-0.6810256456,18.13952476,-17.01798903,2.488208402E1,0
53.59515896,2.183152104,2.475797646,4.465900417,5.553376777,0
13.31761925,-2.025849139,0.7153027546,1.449217051,2.591515546E0,0
449.1371668,0.663823868,-2.261393112,-2.681317921,3.569877691,0
207.9021145,-0.5147075897,-1.631730578,-0.06763298929,1.712320882,0
219.9078598,6.635153689,2.89951876,0.9451152867,7.302445921,0
5.660166458,-2.399617197,-1.904911762,-1.434723703,3.383087882E0,0
94.42941046,3.0207675,-1.215909345,-1.150377699,3.453525833,0
152.2300564,-5.68207391,0.9629890555,4.526399803,7.328138032,0
182.7262883,1.047302397,-0.8671792842,0.7635276657,1.55942833,0
127.2245946,0.4111387825,-1.115825405,-3.42658941,3.627067192,0
533.3240365,-2.103177397,-0.9814833601,-2.908554462,3.721068906,0
44.99636525,-1.982360473,-1.445206007,-2.735539151,3.674445250E0,0
175.2879671,1.740317904,-0.405499947,-2.266659114,2.886326412,0
233.168437,-0.9735970742,0.9423934078,0.09040467829,1.358002063,0
156.1156167,-0.6864770778,1.84385923,1.564200646,2.513521692,0
59.77064762,-1.02360714,1.819804954,-0.7683674061,2.224825863,0
383.3533886,-0.3695995778,-1.067237455,2.085537516,2.371722236,0
42.922849,3.625794691,-4.133623032,11.86489635,1.307704064E1,0
517.1408923,0.4601331872,-2.885953804,-2.923561049,4.133722428,0
437.0103054,3.44094257,-2.243637603,-2.898416852,5.02740646,0
16.82360137,0.1584871723,-0.9009737787,-0.1461149025,0.9264024495,0
120.077289,3.11068189,-2.093364307,-1.267821364,3.958015532,0
479.6151397,-2.991109253,-0.09364184305,-2.51363147,3.90817688,0
233.007824,-0.9119235671,2.147206492,3.226564056,3.981559483,0
441.0157818,1.753447827,0.5202307235,-2.492703116,3.091728984,0
151.291274,-0.7889196382,1.285330267,-1.783361013,2.335560873,0
497.0427595,-0.3808262318,-2.461336312,-2.799148087,3.746789969,0
380.0105276,-5.00525636,0.02855253875,2.303940377,5.510131372,0
226.8342721,-6.151534576,1.242886059,-1.443729,6.439759065,0
84.80437975,2.022985173,-0.6026906437,5.415826793,5.812648697,0
127.6410532,-3.047640719,-2.626898177,5.126570882,6.516934631,0
429.5414535,3.367434883,1.075874524,5.010606562,6.132153113,0
527.3105573,-0.3693627656,-0.3996438143,-3.216622328,3.26233095,0
499.4721925,-4.642049543,-0.2141032563,-0.1623771787,4.649820481,0
463.0710618,6.031041588,-0.3513102181,-0.5339788431,6.064817797,0
340.7797952,0.154967587,-1.532490611,-2.717571242,3.123737486,0
15.33918638,-0.08087488621,-0.3385871154,0.2996885133,0.4593421241,0
116.467933,-5.704437171,-1.268914794,8.414860193,10.24502905,0
26.73526546,-2.87375505,6.026401822,6.144043708,9.073326848E0,0
144.9725034,-0.5321777179,-0.2179824454,-0.9411575988,1.102953805,0
3.92615175,4.195544753,-24.05474353,11.33373177,2.692000665E1,0
411.1103386,-3.13355035,0.3353749475,0.4985476398,3.190636911,0
19.46144575,-2.595274973,-1.119005048,0.8029735672,2.938093095,0
142.0538322,1.762600474,2.366510262,1.03849649,3.12819536,0
485.5581897,1.177215834,-3.151959139,3.488299754,4.846536775,0
558.2614527,9.057477964,1.867135095,-2.902853134,9.692814702,0
541.7770522,-0.04937271953,0.06009855956,0.0624763298,0.09976369119,0
0.8660277916,0.3236866558,-2.595115636,0.2991991013,2.63228386,0
340.7396412,-2.375196885,-0.6522974711,-3.129037469,3.982201366,0
22.72895375,3.74814534,1.52328797,-5.132791734,6.535636979E0,0
107.1077478,2.66160111,-0.1565055509,-3.123429404,4.106631917,0
144.6515504,1.452468833,1.818508042,0.799083707,2.460725905,0
158.80361,1.423742925,1.261649628,-0.3592789498,1.935945522,0
41.36241083,2.207650476,2.667337228,2.30485108,4.159416668E0,0
20.06725846,-1.260307985,0.1655951938,-1.44896869,1.927513489E0,0
231.7229219,3.275949347,-3.181497811,-3.146829377,5.545836959,0
59.15266721,-2.023939438,-0.6495186549,-0.9851418167,2.342799550E0,0
110.5007057,-7.43820327,1.808828999,2.924613547,8.194638164,0
80.18537646,4.003230708,-4.254156951,-4.75094224,7.529618823,0
515.3338546,1.365722466,0.8572123396,1.439618992,2.161599799,0
504.5619605,0.368998484,1.481682254,-3.305386569,3.641033171,0
426.1885077,-7.217533445,1.272181341,0.01606113195,7.328812479,0
67.417197,2.761582065,-0.9656037842,-4.622464879,5.470457725,0
117.2063207,-7.39159336,-0.2983518398,-0.9061880332,7.452908357,0
39.97078483,-1.693979013,0.7203582573,0.5815892118,1.930473239E0,0
153.524997,2.075607775,-3.205194822,-3.811802223,5.395484933,0
6.869448833,0.6224223652,-2.019214742,0.6546893477,2.212070505,0
83.44036212,-2.691204393,0.49469374,4.645461978,5.391439508,0
4.476812667,0.01694658313,0.8966082475,2.250467005,2.422559654,0
56.90917404,2.499981145,1.996912438,-4.856767195,5.815991111E0,0
10.18383875,0.3129084101,-0.8821021825,0.3376001054,0.9949822936,0
354.5426172,0.8129582727,1.507044259,3.826557379,4.192210029,0
163.2822154,7.292846167,-1.40800412,-1.722495591,7.624635852,0
1.529323083,-0.2537503751,-0.1294452216,-2.378433319,2.395431145,0
554.7678006,-0.3424024236,0.2323639646,1.316801443,1.380289272,0
153.735801,1.031221384,2.153771307,2.372287896,3.365991421,0
482.5565466,-3.899698153,1.68593032,5.104750827,6.641422117,0
375.523269,-6.870421089,1.086549201,-0.5411821742,6.976829742,0
324.4070315,0.6584993935,-2.683497763,-3.243552849,4.260917363,0
106.7564058,0.9545638025,-1.962329958,0.6394005599,2.273931396,0
121.0214254,0.2432118653,1.034163703,-0.292066083,1.101793617,0
426.9112982,3.731763781,-2.476819447,-3.90790589,5.944108338,0
45.46459412,-6.913005776,1.262676546,-0.6020413104,7.053116662,0
200.5240276,2.579256526,-0.6558307242,1.92814275,3.286398124,0
369.520182,1.603729286,1.874117694,-2.345421109,3.403713403,0
15.79235021,-2.951209023,1.256743814,1.478480172,3.531988580E0,0
103.8305292,0.2050747534,-0.06107007444,4.051954094,4.057599929,0
51.79323,-3.848042096,-6.847666649,-5.24118391,9.442879608E0,0
258.7661087,2.45611241,-2.224338429,-1.718150525,3.732587687,0
57.65094362,-0.7642965746,-0.3969066596,-1.717750576,1.921549164E0,0
507.3427685,-7.39587703,1.43369357,-0.4322975171,7.545949605,0
97.24011246,-5.669532217,1.261348935,6.916283725,9.031587749,0
161.5556314,-4.677028756,0.3454646105,-0.7633966881,4.751496426,0
45.91636325,-11.69139075,-10.39481278,3.816298732,1.610294652E1,0
358.0962705,2.117951556,-1.326429323,1.28325509,2.809248506,0
530.5933741,-0.3508270919,0.02757313013,1.903509015,1.935765094,0
56.28937796,-0.1142794445,2.519374021,5.430644807,5.987671356E0,0
547.4492097,-0.1436134636,-0.1615337178,0.01896244727,0.2169736005,0
292.0532609,-0.4105154693,-0.8465382475,-3.438609531,3.564994455,0
14.68928204,-0.8565792324,-2.343146542,-4.965538563,5.557034903E0,0
295.1450791,-0.9189074814,-0.5279853009,-2.074167313,2.329233668,0
27.04563046,-2.447363513,2.521644495,5.109182432,6.200969621E0,0
407.8176391,4.036946338,-0.4027383801,-0.6359520183,4.106527597,0
509.220067,1.381767225,-0.117976639,1.214711105,1.843562372,0
8.111280375,2.708372403,14.74373088,-5.198986893,1.586639045E1,0
45.10649225,2.854998644,1.148096116,2.813616437,4.169601828E0,0
275.389578,-5.216733778,0.1769763605,0.03110104769,5.219827508,0
307.853665,-0.5491248858,-1.941544861,-1.220627317,2.358191179,0
435.1430919,2.98021589,2.439722372,4.969297737,6.287117941,0
469.0241053,-3.340544123,2.467588155,-5.253379447,6.696732185,0
45.48585804,4.849230427,8.94854609,-6.436664692,1.204251490E1,0
136.2465907,0.4244123275,4.004594278,-1.11701144,4.179068762,0
188.2272265,1.478248038,1.444261828,-2.334161126,3.117598058,0
36.96332063,1.289896211,-1.985217422,1.227106032,2.666591394,0
554.4365052,-0.3932919109,-1.975629012,0.02963661253,2.014613325,0
51.60300879,2.820336058,-1.578589767,4.19006562,5.291775792E0,0
554.3561913,-0.3757128417,-0.8900171198,0.005951296091,0.9660880037,0
14.16692733,-1.124297948,-3.674325412,4.269614065,5.744068016,0
48.95876079,0.2806311218,0.02259334892,0.05377157986,0.2866281018,0
54.19420717,0.747965886,-1.148030042,-2.368894172,2.736619364,0
361.1881515,1.881514714,-0.4149447352,2.584713732,3.223820998,0
12.580976,-0.2436324994,-0.5317378977,-1.86573074,1.955262944,0
18.57549621,-0.5014104366,-0.2241430718,-2.289091372,2.354058592E0,0
25.94418508,-1.65110255,-0.2500772274,-1.83378857,2.480213452E0,0
59.70240779,-6.69192606,-7.637410891,-2.271649128,1.040539808E1,0
4.898069667,0.3289454222,0.5234991708,-0.4829145241,0.7845144423,0
264.8995153,-4.0314827,0.1783546954,0.07147782594,4.036058998,0
8.605989708,-1.462106799,-1.559733958,-1.774457458,2.778349434,0
2.8067695,1.421231253,1.463199643,2.83151418,3.489745553E0,0
326.9668405,0.8784231144,1.242405272,-3.320876428,3.652864394,0
54.41825425,2.995937884,-2.141889911,-4.459226405,5.783427732,0
259.900437,5.133113916,-1.418049198,-1.760248285,5.60876065,0
181.310902,-5.263036124,-0.416086404,0.3636535442,5.291967596,0
49.71098017,0.4133954423,0.1736240056,-0.9044993573,1.009534633,0
499.3918805,-3.16813897,-0.06674070418,-0.04847517192,3.16921263,0
381.7170921,4.197880424,-1.258527215,-1.937915202,4.791827014,0
266.5658776,-3.945270182,0.3552044638,0.2525972311,3.969273534,0
109.0250698,-4.539254907,1.859382418,0.06914390981,4.905804619,0
50.33288188,-5.322619252,8.482498444,5.334313683,1.134627507E1,0
232.2348759,5.440369311,-2.433531048,-2.278452364,6.380520102,0
540.5522683,-0.06438369155,0.1393508434,0.04024872422,0.1586942882,0
324.5174545,3.816310426,-2.354177753,-2.927186907,5.354885746,0
43.19455158,-2.639612947,-5.360713277,4.470275888,7.462450661E0,0
124.9760043,-5.469362145,-0.01608159721,0.01874324977,5.469417903,0
5.881003375,-0.02421039641,0.8011998144,0.2966269112,0.8546898913,0
240.5465872,-1.719446853,1.620622769,0.3427558878,2.387550468,0
273.8135566,-2.934264961,2.640179835,0.3780289239,3.965270015,0
57.12845183,0.7939115524,0.2654007331,3.334014537,3.43749706,0
336.1721291,-0.1989006418,0.3641318464,-1.449383258,1.507602499,0
46.28816337,-0.2271241285,1.698175852,3.306474152,3.723997571E0,0
8.639231625,-0.08811753988,-0.1491206637,0.08227207839,0.1917560118,0
43.12419983,0.04492620438,-0.6919507295,-0.4212860405,8.113544872E-1,0
61.69471275,2.763054979,-7.725440138,-2.53368625,8.586993895E0,0
57.78479475,0.128361294,-0.09960044816,-1.030049018,1.042783702,0
47.65840392,1.241270181,-2.514956449,10.06630217,1.044969842E1,0
16.00086942,2.344583057,4.552124628,-5.401205245,7.442575256E0,0
92.873492,-6.576511964,1.988418188,-5.509254774,8.806600063,0
160.177696,2.993421242,1.059315501,0.0541589579,3.175791753,0
311.0458753,3.016896059,-3.555312354,-3.717781919,5.963540069,0
274.3255126,-6.66963589,0.6210722432,4.4315375,8.031705812,0
356.6707931,2.83630188,-2.299327654,1.253473905,3.860403197,0
62.93029487,1.502042697,2.852301908,5.181319531,6.102280764,0
395.7009342,-2.264585107,1.795085119,0.8351161502,3.008005199,0
544.8088961,0.1634232455,-0.0460010688,-0.09642358281,0.1952453913,0
454.8191335,1.563815607,-1.454620901,-2.715996003,3.455152023,0
137.2428611,2.219980792,0.6786113302,-2.334510643,3.292228424,0
47.94391233,-4.610078137,2.311212851,7.746776043,9.306291653,0
137.5239351,-0.1207941198,0.3905245699,3.653817472,3.67661295,0
32.08431225,-1.640173811,-0.1799929391,-1.86397599,2.489372227,0
188.7492134,0.5786813915,-2.212661247,-2.324056553,3.260671834,0
54.08725771,-0.9084497362,0.7286998951,3.895839868,4.066184051E0,0
46.21777508,3.299090872,0.1743335652,2.366559963,4.063865012E0,0
65.71817179,-1.576839695,1.262661197,1.048720347,2.276082399,0
45.71553712,2.096129748,-0.3616999894,-2.244901625,3.092599248,0
224.0135146,4.446016375,2.290332444,-0.2801985923,5.009111255,0
165.8018221,-0.2049864239,-1.124279091,-1.908397872,2.224411236,0
70.35828046,3.607138565,1.792804997,-0.7410416132,4.095697872,0
12.50663379,6.469893833,-3.692830095,5.998977796,9.564740191E0,0
2.884868875,-2.217073702,5.975748562,6.179577822,8.877621795E0,0
9.703223042,-0.6343895692,-2.447065598,-4.163607846,4.870955806E0,0
453.3635039,4.698948798,-2.35570066,-3.489520068,6.309215143,0
1.730080083,0.2302770934,0.2996689251,-0.1389356911,0.4026563431,0
0.574213875,1.063383994,-5.317974808,-3.592578413,6.505248745E0,0
64.61664687,-4.911008014,0.8088967967,-2.117791343,5.40900674,0
253.0844285,2.151902245,1.257436563,-1.740840792,3.040124445,0
406.2917555,-0.366804024,1.125432892,4.433446616,4.588746374,0
22.42003571,-2.234631429,-2.275798312,-2.849579152,4.277024308E0,0
64.524656,1.955592212,0.9082836753,-0.9005904937,2.336746321,0
115.8059725,-4.461498341,-5.779109039,3.22896463,7.983062151,0
224.8968835,1.929715651,-3.506436063,-0.5036111824,4.033921241,0
19.020131,-0.1377098954,0.3350343472,0.3451248872,0.5003231125,0
50.53311512,3.436165395,-0.7374870908,3.777762364,5.159710100E0,0
26.72510337,0.4630798915,-1.622938266,0.3641148895,1.726543152E0,0
203.8667505,-3.464355406,1.575188734,1.986426626,4.292885821,0
195.0532064,-0.4935897857,-1.292634316,-2.362835287,2.738160869,0
510.5954151,4.982019525,-1.621907841,-2.592927316,5.845885361,0
212.630123,-2.907842563,1.436256843,-1.909502996,3.763586559,0
474.7462681,0.6198311716,-0.8766506772,-0.2219884459,1.096351203,0
340.5388712,1.611077482,-0.1455914305,0.8800578497,1.841539936,0
42.51375558,-0.2318153496,5.624654837,-4.774886295,7.381735536E0,0
84.21061158,2.441752818,-1.718230047,-3.621622703,4.693678975,0
457.1581815,-6.143362507,-0.5902973239,0.08872681975,6.172295057,0
171.8950437,-4.676504261,2.686692097,6.495849624,8.442989332,0
114.2914868,3.174032963,-2.044826862,-1.444454786,4.042555105,0
126.3612966,-0.04502414525,-1.724610821,0.561812686,1.814371283,0
284.9159788,3.500439159,-2.321648377,-3.167865905,5.261036008,0
2.684621875,2.185893133,-0.01665111601,-4.603171113,5.095840495E0,0
380.4723032,-2.290279527,2.9496829,0.5454386549,3.774057875,0
17.05369471,-1.177099913,-0.02969508469,-3.301344974,3.505042745E0,0
516.6891323,5.393124393,-2.634050199,0.7445177829,6.048001149,0
18.69411729,4.421912983,-0.1109842461,-4.740003853,6.483306908E0,0
175.3027,0.8737700464,-0.1234423238,2.567529935,2.714944211,0
38.21851887,0.452041664,0.6320553607,3.128476721,3.223538776E0,0
60.70497121,5.438463703,-2.507593635,-7.22043074,9.380806648E0,0
105.0298146,3.100303667,0.7263056065,-0.02830870986,3.184368704,0
42.66407012,0.5143012083,-0.8520353611,1.368100528,1.691794622,0
48.9312475,5.918614249,-3.181868232,-6.806767715,9.564850589E0,0
57.64438075,0.08479953736,-1.430303208,-1.898130746,2.378204903,0
89.36014083,-2.122914673,2.104227849,0.8315910101,3.102593296,0
543.2327385,-0.05753367841,-0.002662237287,-0.1150400211,0.1286523148,0
299.451543,0.2086526281,-1.446097707,-2.258227429,2.689670169,0
47.91973912,-1.801155552,-0.8106591475,-2.537554184,3.215666464E0,0
77.4349795,-6.851697135,1.095546165,-1.390757904,7.076735305,0
30.72979837,-0.2198886377,-1.340167794,-3.224885028,3.499183358E0,0
33.39308283,-3.937367671,-7.439839906,4.33022104,9.465986280E0,0
4.97744425,1.633048687,6.368239989,-7.633394439,1.007422648E1,0
180.6787034,-0.7236014155,1.819366413,-1.406743899,2.410937899,0
249.1092615,0.9689631557,1.595481642,4.730378752,5.085364726,0
369.469989,-1.904195479,0.5425610939,-0.2248877147,1.992713588,0
5.45803325,9.103127761,-3.578439261,4.199271476,1.064453115E1,0
32.0600255,-1.874885141,0.0526933533,-0.3863056576,1.914994241E0,0
204.0875915,-0.4796681499,1.257131777,-3.887777435,4.114033935,0
25.92416108,-1.33601247,-0.2239091831,-2.111168202,2.508405035E0,0
401.6438353,2.372211882,-3.744765065,-3.244522902,5.493412734,0
526.9591853,-0.379290753,0.3484520991,-3.936993449,3.970541242,0
477.7479006,4.122058409,-1.672448395,-0.8638892752,4.531528863,0
61.16364108,4.255632203,-1.600711245,-1.84299238,4.90604758,0
175.2176995,0.9676487017,-1.886546828,-1.887786583,2.838862647,0
376.7881338,3.194343266,0.461320172,4.841491052,5.818649397,0
36.80708296,0.2991647489,1.699744075,-0.194379867,1.736782370E0,0
299.461581,0.4547631043,-1.441646514,-1.982015487,2.492697243,0
473.9030016,-4.727104896,1.164363947,-0.5898377328,4.90399558,0
56.48603333,3.968916907,-4.635818165,-3.703184345,7.138395181,0
145.3034864,0.2042281313,-0.4508899087,0.6567803121,0.8224179094,0
304.8722658,2.157481658,-0.6974772254,0.714359014,2.377290555,0
413.5698237,-5.086176562,-0.1241755646,0.5987921588,5.122808179,0
143.7187763,-0.2626483573,-2.300829658,-0.3104704866,2.336491643,0
285.1067078,3.039551681,3.266495861,4.487912845,6.32852521,0
249.8320182,-6.326996069,1.284227774,0.6181977519,6.485544595,0
147.6024,-7.00072629,0.7375765532,-0.02333799183,7.039512229,0
156.3563327,-1.405012977,-0.305682494,-2.45728273,2.847058424,0
38.7693795,2.900852802,-1.758606825,-0.4247660109,3.418782109E0,0
32.93254283,-1.392634276,6.638160912,5.509937729,8.738651172E0,0
59.11262121,-2.262995834,-1.469297705,-2.310691572,3.552362795E0,0
374.1379405,1.231044132,0.3256911544,-2.50810819,2.812854614,0
339.8060631,1.425928906,-0.563277048,-1.301340528,2.010980221,0
395.7210112,-3.389726223,1.524717468,0.1387186132,3.719442173,0
31.58740988,-0.8489488352,0.262726509,0.1475983411,0.9008466094,0
21.19712125,4.030418506,4.022970908,-4.014855557,6.967613178E0,0
18.59551921,-0.4645112899,-0.04690870285,-0.9451217186,1.054147157E0,0
38.18848387,-0.04354289934,-0.08801696777,2.356962343,2.359007092E0,0
323.1020326,1.497701139,0.2847582328,4.254658642,4.51954822,0
12.36012396,-0.6119105333,1.693024162,2.255036019,2.88547271,0
41.56124692,-9.284482078,-3.909425581,-1.070312068,1.013068526E1,0
36.11947821,-1.097471507,1.452151622,1.037639873,2.095205133,0
257.3005156,-1.691393666,2.036614155,-4.009094296,4.804315437,0
96.749603,2.295595669,-2.686486859,-4.508985626,5.728692913,0
137.6708187,0.8018238585,0.5395091397,2.151897275,2.358951778,0
38.55770838,-1.525597767,6.844474069,-1.725922936,7.221709203E0,0
290.1861228,1.513006811,-1.168331575,1.257681708,2.288220172,0
175.352849,-0.5130830871,1.081265364,2.974141803,3.205917732,0
276.5339501,-2.508781205,-1.548787093,-2.923659866,4.152169506,0
80.96833746,-5.402765282,-0.5076035151,-0.8797632962,5.49741007,0
113.3186059,-2.339520976,5.471199925,4.301507411,7.34236699,0
54.82769633,3.640761809,2.450624213,3.117744741,5.383403929E0,0
436.2674361,-7.15915309,1.270943631,-0.5609061483,7.292694041,0
33.52314112,-0.8897327258,1.043745536,-0.3023934352,1.404446815,0
14.64923404,-8.237333463,-4.483028081,-1.730192281,9.536496667E0,0
531.0250592,-0.04599068999,-2.063601248,-0.8357146128,2.226877673,0
464.6371222,0.4924799842,3.171166073,3.057116132,4.432244335,0
420.2857295,0.7229169989,0.792749126,-3.008032265,3.193637154,0
171.0116776,-0.4881173766,-0.8706688294,-2.626333044,2.809617063,0
141.3585747,-5.990255504,1.014682389,2.669579635,6.636218561,0
416.0493874,-3.907529329,2.519540959,0.1341495989,4.651329725,0
543.3130525,-0.0228111577,0.05402988061,0.01467636511,0.06045636945,0
42.44341183,1.775213795,-0.3010579312,-2.740485311,3.279066885E0,0
85.00497075,-0.02095108531,0.7752554262,0.7382291025,1.07072038,0
249.4104102,-1.480161831,-0.8032008047,-1.995120267,2.610845736,0
112.5463199,-3.353700943,-3.11097542,3.632012036,5.840975048,0
36.07477563,3.06965724,-2.03237931,3.081024227,4.800632408E0,0
37.01346863,1.923499769,-2.250912563,-0.3492208618,2.981344317,0
518.4158602,3.681326283,5.558942658,5.144652811,8.421487946,0
49.09109008,2.39201567,0.6366153118,3.106473064,3.972051475E0,0
175.222461,0.7893191493,-0.9754231596,1.895653281,2.273318372,0
4.19854425,1.591635782,-16.30894865,-5.867358141,1.740520043E1,0
216.1635861,-4.537510098,-1.096141266,-3.110300066,5.609321712,0
55.43206758,2.714218449,-0.438014486,-4.015935538,4.866885731,0
364.0591865,3.019131449,-1.358861196,-3.652776083,4.929952492,0
491.0093405,2.881478637,-3.600992557,-3.307651196,5.675440332,0
8.363384458,3.314671948,4.784250904,1.56515038,6.027089061E0,0
41.41221883,0.9822784352,-1.651078284,-2.128366032,2.867206374E0,0
58.7026345,2.690415604,-1.302033423,-4.245842795,5.192379820E0,0
489.142096,2.626778017,3.266740567,2.287368198,4.775312551,0
3.227269333,-1.825046398,-0.2079024303,-0.8126273203,2.008576844E0,0
185.2157647,-1.369364111,1.327887764,-3.098455946,3.638526245,0
60.1128825,-4.595745734,11.16589797,-17.26976312,2.107232485E1,0
342.6871092,-5.603763905,-0.4036610708,-0.7020723329,5.661980018,0
96.10770687,2.029926695,-4.398442259,-1.219238604,4.995341777,0
367.3819603,-5.671133185,1.51894539,-0.4828092742,5.890844718,0
18.493203,8.463192108,6.617675777,-6.29588245,12.45220419,0
172.7583326,-0.6299410075,0.200100929,-1.410243165,1.55745043,0
52.07945833,-6.500265441,0.2856860398,2.656898194,7.028098984,0
465.9421745,8.621549326,-1.479432684,-8.470542058,12.17661351,0
47.48440842,-0.7065950811,-0.6710510266,-1.104522665,1.472941413,0
57.461189,-5.071894737,2.523463563,0.6418243039,5.701221187E0,0
455.3813085,4.58652029,-1.995497851,-2.709100381,5.688356961,0
91.12299942,1.989117807,-0.6584613866,-0.2385487108,2.108806899,0
95.90502833,-1.101770965,2.225866891,0.4769133805,2.528997637,0
248.9988395,4.111290761,-1.483996582,0.3827078658,4.387644344,0
457.539657,3.479321355,2.970932266,6.027948411,7.5675807,0
75.67834558,-0.7445815176,0.5830114008,0.9322134054,1.327902769,0
411.8230868,5.445516615,-0.9822355313,-0.0455977571,5.533580848,0
361.3889225,-4.209743255,0.3514787641,0.3760531497,4.241095562,0
185.868247,1.518829468,4.289395488,5.106438918,6.839698461,0
292.4347185,-5.064681612,0.5660734789,-0.4794946338,5.11872583,0
350.4268085,2.48577475,0.3825058445,-3.623250568,4.410593102,0
473.2002791,1.999288747,-0.6096587706,2.669089639,3.390114867,0
169.5762088,4.832582234,0.2040574475,-0.9392001703,4.927229186,0
155.263082,2.998352784,-0.5243859011,-0.04665814966,3.044220257,0
11.24592933,-1.710648547,2.33903785,0.2625493566,2.909699071,0
535.0909381,1.964249307,0.7361925173,4.649064447,5.100397533,0
4.99237725,-1.203890832,-3.117860516,-3.50672667,4.844330632,0
97.34049546,-5.779090912,0.1130959681,-0.9098923905,5.851374764,0
200.1124611,-1.657790303,-0.1502218406,4.899311829,5.174368723,0
237.0231432,3.394953049,-3.229208459,-4.462296193,6.470361721,0
374.7804115,2.088506733,0.05365492791,2.225982374,3.052824389,0
18.87433442,-1.308612418,7.55775895,-4.165125491,8.728141679E0,0
58.89510062,-5.090646173,1.860954588,-0.4934915525,5.442551272,0
72.42607537,3.310902248,0.004749254733,-1.413335319,3.599946246,0
328.5127652,-0.3237129682,-1.885448867,-2.89959565,3.473810941,0
7.102016,1.914289527,0.3927311629,-3.506393963,4.014167508E0,0
243.287044,1.225308598,-0.8921563236,-2.24721186,2.710587613,0
47.50822792,-2.042088611,1.319554605,1.609940783,2.916034906E0,0
17.33417571,3.503818849,0.8694049537,2.274943449,4.267080876E0,0
369.580413,5.590777824,-1.959735841,-1.85752885,6.208685422,0
391.9866263,2.887070915,-1.089674684,-0.0796889247,3.086894832,0
275.550192,1.325854395,-2.241384232,-1.594516851,3.053551562,0
403.1897961,7.352798254,-1.8688552,-7.400608597,10.59836164,0
142.3423285,3.248935795,3.412160236,3.920281522,6.129194767,0
18.794336,1.228820436,5.704726024,2.293548705,6.270108797,0
8.822147625,-1.28605196,7.152206597,-9.064676471,1.161793219E1,0
331.8756573,-2.852410374,2.337416417,1.159097652,3.865652315,0
160.107488,4.224333812,1.794319865,1.017977441,4.701154965,0
318.2735384,2.814066673,-2.102505405,-4.387503873,5.620470661,0
116.487993,-2.097412919,0.8831517577,7.979710404,8.297883833,0
53.86659071,1.925266505,2.61393987,1.665625572,3.648786278E0,0
443.0034631,-1.37928976,-0.6565380912,-3.410769183,3.737222087,0
176.0609111,-1.669507538,1.257665336,5.821119529,6.185014963,0
16.01387471,-1.694390949,-0.3719130287,-2.127996488,2.745477926,0
24.70130713,4.603961365,1.998076034,-4.8798368,7.000112519E0,0
83.27988917,-0.5149052622,-0.6573591864,0.362913579,0.9104695464,0
106.1574106,2.52459383,-1.111946874,-1.091620345,2.966754933,0
137.6343561,-5.533752853,-0.5014924438,0.3139424171,5.56529201,0
13.90833604,-0.8816602792,9.716586052,-4.244514892,1.063979680E1,0
28.62129408,-0.7480009693,0.5492665346,0.647025256,1.131300516,0
308.8273892,-5.511986593,-0.09155906484,-0.6122679444,5.546643246,0
119.8479478,0.06628557153,-0.2919365671,1.93764506,1.960634876,0
119.5671157,-0.3353313857,0.4284347002,-1.398511897,1.50061286,0
302.7441292,3.549806031,1.315808294,0.1529298323,3.788913018,0
3.46767025,2.275286243,1.928370792,1.002180165,3.146411683E0,0
262.3999752,1.860493389,0.2717953943,-2.396258556,3.045876467,0
3.165214875,5.064001581,-8.459094964,1.529245698,9.976922974E0,0
35.40680071,1.494981015,-2.788664322,-2.799262108,4.224628419,0
505.1643019,3.978989321,-5.410762519,-4.044178174,7.839903326,0
132.3751,2.085399815,3.522362709,0.1747785383,4.097130579,0
160.5819175,-4.829878482,-0.2860035436,-2.810477067,5.595382518,0
132.6258434,-2.909878856,-7.391951795,-1.272909319,8.04541139,0
476.0513255,-1.306473214,-0.3088072461,0.2765873337,1.370669445,0
49.21870596,1.230612023,-0.4426454808,-2.953963062,3.230516792,0
1.96373325,10.24010832,-10.03663574,15.83440032,2.136169724E1,0
33.409293,-0.3209215075,-0.9325601453,-1.46597137,1.766842125,0
66.43026829,-4.123207387,3.986143974,5.23640498,7.765959056,0
370.8352395,-1.165248923,0.811323245,6.254643207,6.41378298,0
258.2641923,4.953751161,-0.6374783608,-3.066024365,5.860591662,0
38.1169845,-0.1428270131,2.99703716,5.745353647,6.48164484,0
223.2305285,-0.3644511044,-0.4163058939,0.1495983812,0.5731621764,0
26.44310425,1.316194795,-1.551327416,-2.298776408,3.069748925,0
453.1326109,-5.678884839,-0.5128760956,-0.4702542789,5.721355957,0
27.45691883,-1.9206665,0.07538318127,-0.6676198804,2.034787147,0
144.2302953,0.2708971523,-1.407396156,2.166969935,2.598058488,0
40.12266237,-0.4417657672,1.248786046,-0.8151743674,1.555356175,0
526.7684413,-3.947132521,-0.68332901,0.5303851444,4.040804632,0
282.3963483,1.000108935,0.5019923808,2.007758439,2.298544796,0
21.16870663,1.016989992,7.454861403,10.65630027,1.304476763E1,0
398.421416,-2.41499245,-1.303037098,-3.39457298,4.36499942,0
242.393635,1.599681843,-0.5476914409,0.3620707029,1.729174111,0
500.5162467,-3.948960945,0.05713372886,0.8239511843,4.034408552,0
8.491744375,7.418953652,-4.314451684,7.172544383,1.118484508E1,0
213.051729,1.440618866,-1.46859867,-2.582546169,3.301773688,0
300.6561475,3.777020645,0.08733898312,-0.5731623508,3.821260019,0
12.14933096,-1.722670423,-1.88492174,2.136393675,3.329369503,0
100.6129667,0.4169824898,-3.062872716,-0.5555860591,3.140659093,0
55.87890662,4.282304277,2.015211884,3.747204523,6.036617480E0,0
11.39699008,-3.198948534,-1.713416035,1.103936774,3.793117798E0,0
145.2835527,2.22137126,-1.553411656,-2.378262434,3.606065758,0
552.1877205,-0.04502765357,0.01752498239,-0.01000860594,0.04934355872,0
134.1309751,6.455985646,-1.437580214,-9.709091091,11.74788651,0
231.4518879,-6.078841406,0.7206956416,3.830517991,7.221120628,0
108.4943257,3.352914785,-0.467632826,0.7977157509,3.478084018,0
273.5324826,1.656852994,-1.140233219,-0.6163321978,2.103606193,0
50.74200479,5.345139803,-10.11647713,3.95053677,1.210455988E1,0
295.9883036,-1.37779872,-0.3386156206,6.231364857,6.390844845,0
54.18601438,0.03937573493,14.37774196,-13.06808376,1.942925185E1,0
225.8204056,-6.360025236,-1.268046775,-2.967996379,7.132101102,0
152.0134191,1.469101238,-2.32467168,-0.5210582507,2.798903101,0
512.181585,3.294984958,-2.175296955,-1.187843003,4.123083035,0
430.0333535,2.333806785,0.08279079951,0.1769982145,2.341972842,0
436.4581731,3.364433507,-0.7356845404,-3.903429846,5.205517182,0
23.86188296,1.61044569,5.87686279,-3.408631441,6.982107123E0,0
111.9663038,-0.2284109545,1.801753284,1.347083881,2.261221228,0
51.45711833,-0.3880358487,2.120738047,3.238912498,3.890842564,0
32.85244883,-13.81194549,-3.808541231,10.63042984,1.784042778E1,0
146.0657474,-0.3936543286,0.7177544922,0.742242339,1.105015353,0
47.79960112,-2.482684497,-2.483622975,-2.177651628,4.132102613E0,0
61.41458508,-5.11629557,1.241662822,6.664766913,8.493369468,0
1.345031583,-0.7574281427,2.478036545,2.225655515,3.415831521E0,0
196.5790132,-3.803717278,1.321275148,1.01070906,4.151573912,0
561.3133796,-0.0004224613309,-0.3621426237,-0.09453018129,0.3742771881,0
179.2243745,3.196519308,-0.8907718492,1.60751068,3.687180597,0
448.2637902,3.649179461,0.5454228674,-1.636947318,4.036532344,0
438.2651548,-5.337747753,1.731623972,-0.461782102,5.630569719,0
338.6415978,-5.367649829,0.2682639684,-2.210634456,5.811242117,0
413.7103657,0.05559766531,-1.97064236,-2.281494085,3.015250847,0
463.3621878,1.792203172,-1.197060261,-2.528068246,3.322058779,0
70.7830875,0.4671509058,2.295210484,-0.2108120048,2.351736132,0
143.8681512,3.367058907,1.001126058,3.655495039,5.069712324,0
83.016088,-5.80312063,-0.1970798188,-0.96072209,5.885408774,0
89.86204683,2.858685898,-4.916820146,-1.293049761,5.8325966,0
43.573613,1.141843688,-1.886738616,-0.09070259392,2.207219195E0,0
117.7082387,-6.794935289,1.454758895,4.554732487,8.308613425,0
133.9898957,0.7815791899,3.95414801,1.700577596,4.374713325,0
445.9548678,-5.630516086,1.117735618,3.838238654,6.905368946,0
437.6427498,3.504871348,-1.600104012,2.275291797,4.474528889,0
28.81201108,1.413227584,-0.5717387,-1.199753927,1.939975987,0
26.98376838,0.5758093853,0.759018293,2.221536736,2.417207208,0
426.3491287,4.129163945,-0.398485554,-3.858977559,5.665729734,0
481.1310177,-5.88461152,0.4435512145,-0.4849587107,5.921197123,0
56.12963725,0.7404945331,3.999438204,6.684117689,7.824402046E0,0
53.06566846,-0.006743593812,-1.832022126,-0.719726758,1.968338679E0,0
503.2568904,0.198891871,1.108556951,-1.193326229,1.640879026,0
150.4332002,3.082680743,-1.959823696,-4.234727238,5.592561512,0
48.84730725,0.3769132751,1.100711157,4.656246582,4.79940214,0
512.111312,2.470394819,-2.625104544,-2.378805933,4.318882042,0
461.7258546,-5.135432337,0.355648706,0.9043186784,5.226561352,0
37.28743871,2.389677661,1.528821191,2.592559526,3.843074089E0,0
24.6428025,0.4107066733,2.718086967,1.451768629,3.108747157E0,0
473.6721066,2.874190083,-0.7674979983,0.1812736255,2.980416404,0
292.0131069,-2.179126296,0.2749737945,-3.470449374,4.107093968,0
525.9954233,1.037200162,1.947906485,6.506513191,6.870577687,0
546.2244247,-0.3701229036,0.09254519776,0.4524423444,0.591827384,0
173.3970263,-3.406067437,-1.854888248,-3.213978217,5.037019136,0
538.0725821,-1.138607839,-0.5555370887,0.01206156336,1.266962805,0
95.84693788,1.063050045,0.4034859467,-1.039842592,1.54082735,0
118.591613,0.248213135,0.3354806359,3.443027687,3.468226733,0
102.2793201,2.418507212,0.3210388903,5.127129875,5.678001749,0
51.33269379,2.940873777,9.051712609,-6.515296293,1.153392065E1,0
44.8867385,-0.1270762222,-0.787928389,4.99332804,5.056708853,0
265.9535399,-4.309087449,0.5053757259,3.120125728,5.344045642,0
17.07216304,5.886181498,6.067006642,-18.58704726,2.041896246E1,0
247.1618303,2.80109521,-2.350546632,3.832007861,5.296743159,0
28.77766638,0.1325695351,7.329010611,-2.53257908,7.755380585E0,0
420.4061945,-0.9847746116,3.481981838,-3.074805129,4.748516098,0
16.35219937,-0.2659611156,0.6161997584,-0.4729713339,0.8210598881,0
26.87543046,-0.7494770989,-21.1492036,-5.277326134,2.181056395E1,0
399.585903,2.765395035,-2.173790858,-2.289577276,4.197015665,0
41.38103492,-1.35666776,10.32444739,-10.54118028,1.481726166E1,0
106.9296958,-7.818370521,-11.82261163,-17.81053819,22.76216892,0
450.572714,-7.426355057,1.018930829,-0.171865017,7.497900177,0
404.3542842,1.080378342,-0.4789675073,3.2004577,3.411679458,0
461.505001,1.683265452,-0.1722260825,0.07043088198,1.693518501,0
403.9426972,-7.606865036,1.311861423,0.1037208349,7.719853243,0
45.79759038,4.632711539,-2.441196747,2.171811429,5.669058357E0,0
287.2147646,-2.294025838,3.30942758,1.864338518,4.437411809,0
273.1209104,1.438023872,-0.177714133,2.255888543,2.681143056,0
438.7871707,-3.94621977,0.4440825802,1.232958949,4.158130299,0
75.727648,1.054151971,-3.60147846,1.814468493,4.168234565,0
154.972217,-1.395001228,-0.6505015719,0.5266095972,1.626806193,0
529.9207481,1.9180832,2.24307247,2.978725435,4.193235324,0
201.9092997,1.689844154,-0.4679921374,-5.344245763,5.62454911,0
94.72051846,1.748732048,2.642739746,4.776933113,5.732471292,0
21.24880163,1.144646843,-4.456154863,1.525637089,4.847174546E0,0
4.86730825,-1.51521355,9.203768283,-4.975500464,1.057169937E1,0
123.6208272,5.199638273,-1.800170881,-1.381105905,5.673121442,0
545.8730527,-0.1343865573,-0.02061859801,-0.1978804488,0.2400865373,0
555.3601146,0.0133591336,-1.496728455,-1.948339033,2.45690853,0
111.8056898,2.709485128,-0.3705475576,-0.5703415078,2.793546954,0
143.4479713,-0.2951933932,-0.3061274672,2.752032685,2.784696943,0
503.1665404,-0.03121769965,0.9117860113,-1.231294539,1.532453757,0
90.86223042,0.7741798308,0.2213890332,1.014943394,1.295560731,0
9.853406042,-1.163224763,7.809054737,-8.776419849,1.180508251E1,0
16.11148437,-1.50770821,-0.2620754215,-0.356089586,1.571199341,0
52.32520437,-1.546192099,8.086534356,0.6673129016,8.260027506E0,0
3.938407,1.886311185,-4.320787143,-1.065348074,4.833460244,0
111.9261508,1.380048729,2.614056814,2.400628181,3.807997267,0
27.11556137,1.582865835,1.931044723,2.34069539,3.422462985E0,0
481.2816018,4.415797965,-1.085839933,-7.28264336,8.585756481,0
437.8937188,-1.15889066,-0.9421348147,-3.579191798,3.878306267,0
384.1163248,-2.84752561,-1.043048548,-2.551985697,3.963455988,0
236.7621472,-4.023755604,-0.2520854536,1.437653012,4.28030401,0
48.49598625,-5.730433307,1.534652911,-2.333972261,6.374986428,0
109.2866708,3.359376835,0.9926437944,2.87328318,4.530619235,0
264.4779063,-0.6277839696,1.087272209,0.06090649858,1.256973815,0
37.09742296,1.053808886,-0.5488313556,-2.248815751,2.543403489E0,0
163.5076011,1.11354828,-0.3072056937,2.648800677,2.889724925,0
5.009391208,0.713815223,-2.219086168,-0.3986350965,2.364907088E0,0
25.60393463,-0.9835212609,2.331908194,1.6710743,3.032754393E0,0
368.2252032,0.603947795,-0.8695827822,1.861373395,2.141410299,0
54.09391117,-0.957863971,-0.8856162129,1.027109622,1.660353468,0
61.51496308,-5.6810448,0.5257173121,-1.604871393,5.926741171,0
317.7013474,2.649727753,-0.4653241991,-1.138289896,2.921179157,0
32.61199683,0.53706705,-1.48653822,-3.609060545,3.939994278E0,0
305.0529568,-6.270258781,1.631772532,-0.446981045,6.49450682,0
492.5854578,-2.482513758,2.617437674,-1.169512274,3.792309784,0
393.0206093,3.246943649,-2.17648467,1.237179615,4.100041705,0
222.4475425,1.56923773,1.742980142,1.355829561,2.709014697,0
407.0948527,-2.108508888,0.8870688075,-0.4274858433,2.327110858,0
356.2993662,-5.449557041,1.205673356,0.620286085,5.615698978,0
90.80205342,0.009131889045,0.3622899735,0.6295930982,0.7264467534,0
175.774103,-2.164277584,0.2667587489,-0.4852452242,2.233992081,0
249.6814442,0.1461377066,-0.5589737166,1.808088888,1.898155229,0
21.61784812,-0.72039451,1.756620672,-1.000680792,2.14617019,0
40.83154671,-2.16787026,-1.16388886,1.385465004,2.823793906E0,0
45.89973038,-2.58061191,-1.317681449,-0.1465078354,2.901259516,0
1.2027945,-6.022393556,-6.720635304,-0.451997956,9.035511341E0,0
87.11117504,-0.7925578489,0.8945362866,-1.066975354,1.602117199,0
232.636407,-2.523973441,-0.6526214799,-2.266770796,3.454649992,0
435.7755351,-5.269865672,-0.3662146246,-0.1202684551,5.283943778,0
281.4728195,4.836957706,-1.919449549,2.393274137,5.727844927,0
61.53452775,3.074143224,-1.359905071,3.285833773,4.700681008E0,0
152.1738971,5.353201359,3.207708247,2.00486202,6.554817214,0
370.263038,2.193196451,-0.4967113218,2.083798555,3.065786885,0
300.9572985,-2.713855922,0.4858287764,0.7714538589,2.862897941,0
456.2145306,-5.40507961,-0.4326313931,-1.344658602,5.586605613,0
52.15976058,-4.547567309,-0.2509366219,-2.161245803,5.041261849,0
147.793128,5.863314791,-1.716599844,-3.372100376,6.978268862,0
20.51793863,6.547133213,-3.381327868,-4.075192391,8.420541816E0,0
134.7433147,2.246894941,-1.519041138,0.2832753424,2.726952103,0
63.00016513,-1.222814542,0.3729687434,-6.257867947,6.387119251,0
558.3618447,0.829289546,2.38447247,3.318255122,4.169442069,0
109.6276796,-2.072209665,2.672789757,0.2127380776,3.388674589,0
500.6768707,3.292282375,-1.517271478,-0.7569559801,3.703271301,0
506.559724,6.583215212,0.5474277315,-2.318127037,7.000865133,0
15.0597305,-17.60730534,-25.69085294,36.14086812,4.770953232E1,0
137.0922853,-5.732692087,1.615526336,0.6547314477,5.991857573,0
59.53751908,0.5112928158,-1.354699733,-2.019365015,2.484847435,0
78.45568217,0.8383487103,-0.3381772256,4.22803393,4.323593796,0
24.06415875,-0.4783139348,-0.2789594029,-1.942777746,2.020145525,0
37.24415162,1.198882326,0.3526410444,-0.008197211623,1.249696656,0
136.3996403,4.632885202,0.4423061961,2.838450147,5.45124383,0
354.6931952,-3.755745551,-0.5634257135,4.865599707,6.172287557,0
269.9889472,2.353264564,0.865119237,6.121234889,6.614816851,0
57.56994004,3.853558359,-0.954984802,5.051993154,6.425304882E0,0
375.724041,7.683607403,-2.186187686,-7.42363084,10.90539014,0
263.3937687,-0.2945681065,1.017468733,-0.8526759236,1.359804847,0
513.4766247,-5.936435392,-1.56098,0.5682579987,6.164482207,0
30.79988037,-2.281394683,-1.035114461,-4.659330404,5.290140211E0,0
309.5501551,8.588439467,0.8597716659,-4.981276928,9.965621889,0
3.386326,-1.105797942,0.07455492318,2.543759249,2.774717759,0
1.90365925,-3.406746883,2.006493686,-3.200617914,5.086835585E0,0
37.51647888,-1.910067399,10.37173967,-9.019938254,1.387734223E1,0
256.5576806,-5.983734105,-0.1333342047,-0.8578945635,6.046390239,0
54.38624638,6.260146022,-6.34702746,1.599851412,9.057246289E0,0
104.7432277,0.2053767255,-0.8805222648,-0.9037322757,1.27837048,0
1.605340583,-2.035449098,-1.988048644,-1.671388587,3.299837913E0,0
58.81137679,1.12182728,-1.12501774,-4.525261058,4.796055567E0,0
74.88535271,-4.303064817,-0.0006734530628,-2.101695712,4.788892579,0
354.3920387,1.264255148,0.7031731443,-3.1519989,3.468124942,0
54.60650238,3.362553627,-0.04630936325,7.512756439,8.231064377E0,0
46.68863196,0.03726284355,9.165640343,10.555313,1.397944863E1,0
457.619967,-5.840198994,2.067930527,0.2380103284,6.200073376,0
383.3935426,2.516632261,-1.203523919,2.912223882,4.032735511,0
182.7147662,-0.691271283,0.5382122272,-1.799465414,2.001400551,0
175.202401,0.5182467632,-0.5432051647,1.395380859,1.584531256,0
106.6288057,-2.499380344,3.941076559,3.513916991,5.841797597,0
133.8093598,-1.376029937,-1.487170304,1.45161514,2.492452691,0
4.306302667,-0.479521531,1.647588373,-0.1873301715,1.726146268,0
322.8711486,1.903897855,0.6207588324,-1.263044628,2.36758322,0
173.7822327,-0.1667415404,-0.5625205645,-2.83676264,2.896800719,0
89.42800237,1.459160972,0.27717264,-2.084589683,2.559587771,0
249.0891845,-0.6840335995,1.928145674,3.124528681,3.734745933,0
185.2258027,-2.146795871,1.596707803,-0.7070616158,2.767335261,0
321.7769572,-4.303551305,-0.1851186083,-1.611442932,4.599083719,0
131.5109687,3.892231259,-1.833212766,-3.657001866,5.646573816,0
0.3617536667,-5.326751479,-2.316910378,-3.391870397,6.726599424E0,0
41.56239283,-0.9912012863,-0.6785939348,-1.559003933,1.968111527E0,0
416.0594254,-5.140192555,1.966706015,-0.3016252573,5.511849948,0
28.40799042,-1.30039401,1.411797648,0.3448974305,1.950167023,0
539.6788563,-0.07471045911,0.1554650389,-0.2077580041,0.270026701,0
80.99315425,0.618959571,0.6813561594,-1.55340347,1.805663177,0
0.9725095,6.574191788,3.233902604,4.680035979,8.693725352E0,0
11.61725108,-2.027957645,-1.6242267,-0.9743773851,2.774911867E0,0
72.49634037,5.006802948,0.3471940707,-8.781176559,10.11423162,0
41.0580365,5.728047643,-1.496192996,-1.888389431,6.214107975,0
440.292989,1.251522251,2.876119664,6.527430435,7.241941753,0
272.3780724,-1.934702742,-1.794484317,-2.24214057,3.462721906,0
